,id,round_number,owner,name,timestamp,body,balance,tick_number,n_transactions,participant_code,session_code,treatment,player.intermediary_payoff
0,149,1,Player object (723),GAME_STARTS,2023-02-22 21:51:11.668830+00:00,"{""priceA"": 100, ""sharesA"": 1, ""secs_since_round_starts"": 0}",50.0,,,mi0088eg,vmu7c279,FULL STUDY,185.0
1,150,1,Player object (723),sell,2023-02-22 21:51:50.977252+00:00,"{""priceA"": 135, ""sharesA"": 0, ""secs_since_round_starts"": 39, ""market"": ""A""}",185.0,7.0,1.0,mi0088eg,vmu7c279,FULL STUDY,185.0
2,202,1,Player object (730),GAME_STARTS,2023-02-25 00:09:42.859798+00:00,"{""priceA"": 100, ""sharesA"": 1, ""secs_since_round_starts"": 0}",50.0,,,7jonfg2l,vmu7c279,FULL STUDY,175.0
3,203,1,Player object (730),sell,2023-02-25 00:10:05.641199+00:00,"{""priceA"": 115, ""sharesA"": 0, ""secs_since_round_starts"": 23, ""market"": ""A""}",165.0,4.0,1.0,7jonfg2l,vmu7c279,FULL STUDY,175.0
4,204,1,Player object (730),buy,2023-02-25 00:10:16.248101+00:00,"{""priceA"": 120, ""sharesA"": 1, ""secs_since_round_starts"": 33, ""market"": ""A""}",45.0,6.0,2.0,7jonfg2l,vmu7c279,FULL STUDY,175.0
5,205,1,Player object (730),sell,2023-02-25 00:10:32.584402+00:00,"{""priceA"": 130, ""sharesA"": 0, ""secs_since_round_starts"": 50, ""market"": ""A""}",175.0,9.0,3.0,7jonfg2l,vmu7c279,FULL STUDY,175.0
6,341,1,Player object (731),GAME_STARTS,2023-02-25 02:28:58.092457+00:00,"{""priceA"": 100, ""sharesA"": 1, ""secs_since_round_starts"": 0}",50.0,,,5c7udvpd,vmu7c279,FULL STUDY,180.0
7,400,1,Player object (734),GAME_STARTS,2023-02-26 00:17:08.717958+00:00,"{""priceA"": 100, ""sharesA"": 1, ""secs_since_round_starts"": 0}",50.0,,,nlp1gb1k,vmu7c279,FULL STUDY,160.0
8,401,1,Player object (734),sell,2023-02-26 00:17:25.635276+00:00,"{""priceA"": 120, ""sharesA"": 0, ""secs_since_round_starts"": 17, ""market"": ""A""}",170.0,3.0,1.0,nlp1gb1k,vmu7c279,FULL STUDY,160.0
9,402,1,Player object (734),buy,2023-02-26 00:17:31.824235+00:00,"{""priceA"": 115, ""sharesA"": 1, ""secs_since_round_starts"": 23, ""market"": ""A""}",55.0,4.0,2.0,nlp1gb1k,vmu7c279,FULL STUDY,160.0
10,403,1,Player object (734),sell,2023-02-26 00:17:36.090995+00:00,"{""priceA"": 105, ""sharesA"": 0, ""secs_since_round_starts"": 28, ""market"": ""A""}",160.0,5.0,3.0,nlp1gb1k,vmu7c279,FULL STUDY,160.0
11,404,1,Player object (734),buy,2023-02-26 00:18:01.320202+00:00,"{""priceA"": 130, ""sharesA"": 1, ""secs_since_round_starts"": 53, ""market"": ""A""}",30.0,9.0,4.0,nlp1gb1k,vmu7c279,FULL STUDY,160.0
12,405,1,Player object (734),GAME_ENDS,2023-02-26 00:18:02.446995+00:00,"{""priceA"": 130, ""sharesA"": 1, ""secs_since_round_starts"": 54}",30.0,10.0,4.0,nlp1gb1k,vmu7c279,FULL STUDY,160.0
13,515,1,Player object (735),GAME_STARTS,2023-02-26 19:10:49.656860+00:00,"{""priceA"": 100, ""sharesA"": 1, ""secs_since_round_starts"": 0}",50.0,,,gcs54w3b,vmu7c279,FULL STUDY,185.0
14,516,1,Player object (735),sell,2023-02-26 19:11:06.173904+00:00,"{""priceA"": 120, ""sharesA"": 0, ""secs_since_round_starts"": 17, ""market"": ""A""}",170.0,3.0,1.0,gcs54w3b,vmu7c279,FULL STUDY,185.0
15,517,1,Player object (735),buy,2023-02-26 19:11:17.250179+00:00,"{""priceA"": 105, ""sharesA"": 1, ""secs_since_round_starts"": 28, ""market"": ""A""}",65.0,5.0,2.0,gcs54w3b,vmu7c279,FULL STUDY,185.0
16,518,1,Player object (735),sell,2023-02-26 19:11:23.071989+00:00,"{""priceA"": 120, ""sharesA"": 0, ""secs_since_round_starts"": 33, ""market"": ""A""}",185.0,6.0,3.0,gcs54w3b,vmu7c279,FULL STUDY,185.0
17,568,1,Player object (740),GAME_STARTS,2023-03-01 22:59:20.758103+00:00,"{""priceA"": 100, ""sharesA"": 1, ""secs_since_round_starts"": 1}",50.0,,,hre8fq8i,vmu7c279,FULL STUDY,190.0
18,569,1,Player object (740),sell,2023-03-01 23:00:07.013845+00:00,"{""priceA"": 140, ""sharesA"": 0, ""secs_since_round_starts"": 47, ""market"": ""A""}",190.0,8.0,1.0,hre8fq8i,vmu7c279,FULL STUDY,190.0
19,681,1,Player object (741),GAME_STARTS,2023-03-03 23:05:48.188830+00:00,"{""priceA"": 100, ""sharesA"": 1, ""secs_since_round_starts"": 1}",50.0,,,pb727kvg,vmu7c279,FULL STUDY,170.0
20,682,1,Player object (741),sell,2023-03-03 23:06:21.044992+00:00,"{""priceA"": 120, ""sharesA"": 0, ""secs_since_round_starts"": 33, ""market"": ""A""}",170.0,6.0,1.0,pb727kvg,vmu7c279,FULL STUDY,170.0
21,683,1,Player object (741),GAME_ENDS,2023-03-03 23:06:41.683954+00:00,"{""priceA"": 130, ""sharesA"": 0, ""secs_since_round_starts"": 54}",170.0,10.0,1.0,pb727kvg,vmu7c279,FULL STUDY,170.0
22,816,1,Player object (743),GAME_STARTS,2023-03-04 17:27:14.078808+00:00,"{""priceA"": 100, ""sharesA"": 1, ""secs_since_round_starts"": 0}",50.0,,,pgdv91vz,vmu7c279,FULL STUDY,170.0
23,817,1,Player object (743),sell,2023-03-04 17:27:48.419231+00:00,"{""priceA"": 120, ""sharesA"": 0, ""secs_since_round_starts"": 34, ""market"": ""A""}",170.0,6.0,1.0,pgdv91vz,vmu7c279,FULL STUDY,170.0
24,818,1,Player object (743),GAME_ENDS,2023-03-04 17:28:08.660542+00:00,"{""priceA"": 130, ""sharesA"": 0, ""secs_since_round_starts"": 54}",170.0,10.0,1.0,pgdv91vz,vmu7c279,FULL STUDY,170.0
25,926,1,Player object (747),GAME_STARTS,2023-03-04 19:49:07.549132+00:00,"{""priceA"": 100, ""sharesA"": 1, ""secs_since_round_starts"": 0}",50.0,,,3cbm3sys,vmu7c279,FULL STUDY,175.0
26,927,1,Player object (748),GAME_STARTS,2023-03-04 19:49:16.654317+00:00,"{""priceA"": 100, ""sharesA"": 1, ""secs_since_round_starts"": 0}",50.0,,,galec1ga,vmu7c279,FULL STUDY,165.0
27,928,1,Player object (747),sell,2023-03-04 19:49:28.445194+00:00,"{""priceA"": 120, ""sharesA"": 0, ""secs_since_round_starts"": 20, ""market"": ""A""}",170.0,3.0,1.0,3cbm3sys,vmu7c279,FULL STUDY,175.0
28,929,1,Player object (747),buy,2023-03-04 19:49:32.713494+00:00,"{""priceA"": 115, ""sharesA"": 1, ""secs_since_round_starts"": 25, ""market"": ""A""}",55.0,4.0,2.0,3cbm3sys,vmu7c279,FULL STUDY,175.0
29,930,1,Player object (748),sell,2023-03-04 19:49:39.681049+00:00,"{""priceA"": 115, ""sharesA"": 0, ""secs_since_round_starts"": 23, ""market"": ""A""}",165.0,4.0,1.0,galec1ga,vmu7c279,FULL STUDY,165.0
30,931,1,Player object (747),sell,2023-03-04 19:49:43.485737+00:00,"{""priceA"": 120, ""sharesA"": 0, ""secs_since_round_starts"": 36, ""market"": ""A""}",175.0,6.0,3.0,3cbm3sys,vmu7c279,FULL STUDY,175.0
31,932,1,Player object (747),GAME_ENDS,2023-03-04 19:50:02.050889+00:00,"{""priceA"": 130, ""sharesA"": 0, ""secs_since_round_starts"": 54}",175.0,10.0,3.0,3cbm3sys,vmu7c279,FULL STUDY,175.0
32,933,1,Player object (748),GAME_ENDS,2023-03-04 19:50:11.114966+00:00,"{""priceA"": 130, ""sharesA"": 0, ""secs_since_round_starts"": 54}",165.0,10.0,1.0,galec1ga,vmu7c279,FULL STUDY,165.0
33,1071,1,Player object (750),GAME_STARTS,2023-03-04 23:15:54.112761+00:00,"{""priceA"": 100, ""sharesA"": 1, ""secs_since_round_starts"": 0}",50.0,,,yt3h0how,vmu7c279,FULL STUDY,180.0
34,1072,1,Player object (750),sell,2023-03-04 23:16:22.468344+00:00,"{""priceA"": 130, ""sharesA"": 0, ""secs_since_round_starts"": 28, ""market"": ""A""}",180.0,5.0,1.0,yt3h0how,vmu7c279,FULL STUDY,180.0
35,1073,1,Player object (750),GAME_ENDS,2023-03-04 23:16:48.748211+00:00,"{""priceA"": 140, ""sharesA"": 0, ""secs_since_round_starts"": 54}",180.0,10.0,1.0,yt3h0how,vmu7c279,FULL STUDY,180.0
36,1112,1,Player object (752),GAME_STARTS,2023-03-05 01:40:39.409538+00:00,"{""priceA"": 100, ""sharesA"": 1, ""secs_since_round_starts"": 0}",50.0,,,zzc584nm,vmu7c279,FULL STUDY,190.0
37,1113,1,Player object (752),sell,2023-03-05 01:41:24.283479+00:00,"{""priceA"": 140, ""sharesA"": 0, ""secs_since_round_starts"": 45, ""market"": ""A""}",190.0,8.0,1.0,zzc584nm,vmu7c279,FULL STUDY,190.0
38,1147,1,Player object (755),GAME_STARTS,2023-03-05 18:27:17.221809+00:00,"{""priceA"": 100, ""sharesA"": 1, ""secs_since_round_starts"": 0}",50.0,,,q5w3ghvj,vmu7c279,FULL STUDY,190.0
39,1148,1,Player object (755),sell,2023-03-05 18:27:36.068647+00:00,"{""priceA"": 120, ""sharesA"": 0, ""secs_since_round_starts"": 18, ""market"": ""A""}",170.0,3.0,1.0,q5w3ghvj,vmu7c279,FULL STUDY,190.0
40,1149,1,Player object (755),buy,2023-03-05 18:27:51.491482+00:00,"{""priceA"": 120, ""sharesA"": 1, ""secs_since_round_starts"": 34, ""market"": ""A""}",50.0,6.0,2.0,q5w3ghvj,vmu7c279,FULL STUDY,190.0
41,1150,1,Player object (755),sell,2023-03-05 18:28:03.266047+00:00,"{""priceA"": 140, ""sharesA"": 0, ""secs_since_round_starts"": 46, ""market"": ""A""}",190.0,8.0,3.0,q5w3ghvj,vmu7c279,FULL STUDY,190.0
42,1151,1,Player object (755),GAME_ENDS,2023-03-05 18:28:11.800735+00:00,"{""priceA"": 130, ""sharesA"": 0, ""secs_since_round_starts"": 54}",190.0,10.0,3.0,q5w3ghvj,vmu7c279,FULL STUDY,190.0
43,1236,1,Player object (756),GAME_STARTS,2023-03-05 22:04:13.836569+00:00,"{""priceA"": 100, ""sharesA"": 1, ""secs_since_round_starts"": 0}",50.0,,,8vrmmtmo,vmu7c279,FULL STUDY,170.0
44,1237,1,Player object (756),sell,2023-03-05 22:04:18.564750+00:00,"{""priceA"": 100, ""sharesA"": 0, ""secs_since_round_starts"": 4, ""market"": ""A""}",150.0,,1.0,8vrmmtmo,vmu7c279,FULL STUDY,170.0
45,1238,1,Player object (756),buy,2023-03-05 22:04:19.807000+00:00,"{""priceA"": 105, ""sharesA"": 1, ""secs_since_round_starts"": 6, ""market"": ""A""}",45.0,1.0,2.0,8vrmmtmo,vmu7c279,FULL STUDY,170.0
46,1239,1,Player object (756),sell,2023-03-05 22:04:20.873454+00:00,"{""priceA"": 105, ""sharesA"": 0, ""secs_since_round_starts"": 7, ""market"": ""A""}",150.0,1.0,2.0,8vrmmtmo,vmu7c279,FULL STUDY,170.0
47,1240,1,Player object (756),buy,2023-03-05 22:04:22.613928+00:00,"{""priceA"": 105, ""sharesA"": 1, ""secs_since_round_starts"": 8, ""market"": ""A""}",45.0,1.0,2.0,8vrmmtmo,vmu7c279,FULL STUDY,170.0
48,1241,1,Player object (756),sell,2023-03-05 22:04:24.153284+00:00,"{""priceA"": 105, ""sharesA"": 0, ""secs_since_round_starts"": 10, ""market"": ""A""}",150.0,1.0,2.0,8vrmmtmo,vmu7c279,FULL STUDY,170.0
49,1242,1,Player object (756),buy,2023-03-05 22:04:25.978140+00:00,"{""priceA"": 120, ""sharesA"": 1, ""secs_since_round_starts"": 12, ""market"": ""A""}",30.0,2.0,3.0,8vrmmtmo,vmu7c279,FULL STUDY,170.0
50,1243,1,Player object (756),sell,2023-03-05 22:04:27.279064+00:00,"{""priceA"": 120, ""sharesA"": 0, ""secs_since_round_starts"": 13, ""market"": ""A""}",150.0,2.0,3.0,8vrmmtmo,vmu7c279,FULL STUDY,170.0
51,1244,1,Player object (756),buy,2023-03-05 22:04:28.805685+00:00,"{""priceA"": 120, ""sharesA"": 1, ""secs_since_round_starts"": 15, ""market"": ""A""}",30.0,2.0,3.0,8vrmmtmo,vmu7c279,FULL STUDY,170.0
52,1245,1,Player object (756),sell,2023-03-05 22:04:29.948225+00:00,"{""priceA"": 125, ""sharesA"": 0, ""secs_since_round_starts"": 16, ""market"": ""A""}",155.0,3.0,4.0,8vrmmtmo,vmu7c279,FULL STUDY,170.0
53,1246,1,Player object (756),buy,2023-03-05 22:04:33.038324+00:00,"{""priceA"": 125, ""sharesA"": 1, ""secs_since_round_starts"": 19, ""market"": ""A""}",30.0,3.0,4.0,8vrmmtmo,vmu7c279,FULL STUDY,170.0
54,1247,1,Player object (756),sell,2023-03-05 22:04:34.588481+00:00,"{""priceA"": 125, ""sharesA"": 0, ""secs_since_round_starts"": 20, ""market"": ""A""}",155.0,3.0,4.0,8vrmmtmo,vmu7c279,FULL STUDY,170.0
55,1248,1,Player object (756),buy,2023-03-05 22:04:40.702763+00:00,"{""priceA"": 135, ""sharesA"": 1, ""secs_since_round_starts"": 26, ""market"": ""A""}",20.0,4.0,5.0,8vrmmtmo,vmu7c279,FULL STUDY,170.0
56,1249,1,Player object (756),sell,2023-03-05 22:05:00.924579+00:00,"{""priceA"": 150, ""sharesA"": 0, ""secs_since_round_starts"": 47, ""market"": ""A""}",170.0,8.0,6.0,8vrmmtmo,vmu7c279,FULL STUDY,170.0
57,1250,1,Player object (756),buy,2023-03-05 22:05:06.424089+00:00,"{""priceA"": 140, ""sharesA"": 1, ""secs_since_round_starts"": 52, ""market"": ""A""}",30.0,9.0,7.0,8vrmmtmo,vmu7c279,FULL STUDY,170.0
58,1251,1,Player object (756),GAME_ENDS,2023-03-05 22:05:08.404333+00:00,"{""priceA"": 140, ""sharesA"": 1, ""secs_since_round_starts"": 54}",30.0,10.0,7.0,8vrmmtmo,vmu7c279,FULL STUDY,170.0
59,1357,1,Player object (757),GAME_STARTS,2023-03-05 22:42:36.622618+00:00,"{""priceA"": 100, ""sharesA"": 1, ""secs_since_round_starts"": 0}",50.0,,,ot80gep3,vmu7c279,FULL STUDY,165.0
60,1358,1,Player object (757),sell,2023-03-05 22:42:38.808001+00:00,"{""priceA"": 100, ""sharesA"": 0, ""secs_since_round_starts"": 2, ""market"": ""A""}",150.0,,1.0,ot80gep3,vmu7c279,FULL STUDY,165.0
61,1359,1,Player object (757),buy,2023-03-05 22:42:39.774474+00:00,"{""priceA"": 100, ""sharesA"": 1, ""secs_since_round_starts"": 3, ""market"": ""A""}",50.0,,1.0,ot80gep3,vmu7c279,FULL STUDY,165.0
62,1360,1,Player object (757),sell,2023-03-05 22:42:40.519320+00:00,"{""priceA"": 100, ""sharesA"": 0, ""secs_since_round_starts"": 3, ""market"": ""A""}",150.0,,1.0,ot80gep3,vmu7c279,FULL STUDY,165.0
63,1361,1,Player object (757),buy,2023-03-05 22:42:41.311067+00:00,"{""priceA"": 100, ""sharesA"": 1, ""secs_since_round_starts"": 4, ""market"": ""A""}",50.0,,1.0,ot80gep3,vmu7c279,FULL STUDY,165.0
64,1362,1,Player object (757),sell,2023-03-05 22:42:42.061866+00:00,"{""priceA"": 110, ""sharesA"": 0, ""secs_since_round_starts"": 5, ""market"": ""A""}",160.0,1.0,2.0,ot80gep3,vmu7c279,FULL STUDY,165.0
65,1363,1,Player object (757),buy,2023-03-05 22:42:42.774435+00:00,"{""priceA"": 110, ""sharesA"": 1, ""secs_since_round_starts"": 6, ""market"": ""A""}",50.0,1.0,2.0,ot80gep3,vmu7c279,FULL STUDY,165.0
66,1364,1,Player object (757),sell,2023-03-05 22:42:43.499321+00:00,"{""priceA"": 110, ""sharesA"": 0, ""secs_since_round_starts"": 6, ""market"": ""A""}",160.0,1.0,2.0,ot80gep3,vmu7c279,FULL STUDY,165.0
67,1365,1,Player object (757),buy,2023-03-05 22:42:44.170806+00:00,"{""priceA"": 110, ""sharesA"": 1, ""secs_since_round_starts"": 7, ""market"": ""A""}",50.0,1.0,2.0,ot80gep3,vmu7c279,FULL STUDY,165.0
68,1366,1,Player object (757),sell,2023-03-05 22:42:44.949471+00:00,"{""priceA"": 110, ""sharesA"": 0, ""secs_since_round_starts"": 8, ""market"": ""A""}",160.0,1.0,2.0,ot80gep3,vmu7c279,FULL STUDY,165.0
69,1367,1,Player object (757),buy,2023-03-05 22:42:45.581410+00:00,"{""priceA"": 110, ""sharesA"": 1, ""secs_since_round_starts"": 9, ""market"": ""A""}",50.0,1.0,2.0,ot80gep3,vmu7c279,FULL STUDY,165.0
70,1368,1,Player object (757),sell,2023-03-05 22:42:46.285483+00:00,"{""priceA"": 110, ""sharesA"": 0, ""secs_since_round_starts"": 9, ""market"": ""A""}",160.0,1.0,2.0,ot80gep3,vmu7c279,FULL STUDY,165.0
71,1369,1,Player object (757),buy,2023-03-05 22:42:46.926011+00:00,"{""priceA"": 110, ""sharesA"": 1, ""secs_since_round_starts"": 10, ""market"": ""A""}",50.0,1.0,2.0,ot80gep3,vmu7c279,FULL STUDY,165.0
72,1370,1,Player object (757),sell,2023-03-05 22:42:47.772140+00:00,"{""priceA"": 115, ""sharesA"": 0, ""secs_since_round_starts"": 11, ""market"": ""A""}",165.0,2.0,3.0,ot80gep3,vmu7c279,FULL STUDY,165.0
73,1371,1,Player object (757),buy,2023-03-05 22:42:48.411079+00:00,"{""priceA"": 115, ""sharesA"": 1, ""secs_since_round_starts"": 11, ""market"": ""A""}",50.0,2.0,3.0,ot80gep3,vmu7c279,FULL STUDY,165.0
74,1372,1,Player object (757),sell,2023-03-05 22:42:49.136495+00:00,"{""priceA"": 115, ""sharesA"": 0, ""secs_since_round_starts"": 12, ""market"": ""A""}",165.0,2.0,3.0,ot80gep3,vmu7c279,FULL STUDY,165.0
75,1373,1,Player object (757),buy,2023-03-05 22:42:49.757238+00:00,"{""priceA"": 115, ""sharesA"": 1, ""secs_since_round_starts"": 13, ""market"": ""A""}",50.0,2.0,3.0,ot80gep3,vmu7c279,FULL STUDY,165.0
76,1374,1,Player object (757),sell,2023-03-05 22:42:50.434495+00:00,"{""priceA"": 115, ""sharesA"": 0, ""secs_since_round_starts"": 13, ""market"": ""A""}",165.0,2.0,3.0,ot80gep3,vmu7c279,FULL STUDY,165.0
77,1375,1,Player object (757),buy,2023-03-05 22:42:51.678978+00:00,"{""priceA"": 115, ""sharesA"": 1, ""secs_since_round_starts"": 15, ""market"": ""A""}",50.0,2.0,3.0,ot80gep3,vmu7c279,FULL STUDY,165.0
78,1376,1,Player object (757),sell,2023-03-05 22:42:52.710855+00:00,"{""priceA"": 120, ""sharesA"": 0, ""secs_since_round_starts"": 16, ""market"": ""A""}",170.0,3.0,4.0,ot80gep3,vmu7c279,FULL STUDY,165.0
79,1377,1,Player object (757),buy,2023-03-05 22:42:53.801318+00:00,"{""priceA"": 120, ""sharesA"": 1, ""secs_since_round_starts"": 17, ""market"": ""A""}",50.0,3.0,4.0,ot80gep3,vmu7c279,FULL STUDY,165.0
80,1378,1,Player object (757),sell,2023-03-05 22:42:54.715150+00:00,"{""priceA"": 120, ""sharesA"": 0, ""secs_since_round_starts"": 18, ""market"": ""A""}",170.0,3.0,4.0,ot80gep3,vmu7c279,FULL STUDY,165.0
81,1379,1,Player object (757),buy,2023-03-05 22:42:55.891658+00:00,"{""priceA"": 120, ""sharesA"": 1, ""secs_since_round_starts"": 19, ""market"": ""A""}",50.0,3.0,4.0,ot80gep3,vmu7c279,FULL STUDY,165.0
82,1380,1,Player object (757),sell,2023-03-05 22:42:56.892857+00:00,"{""priceA"": 120, ""sharesA"": 0, ""secs_since_round_starts"": 20, ""market"": ""A""}",170.0,3.0,4.0,ot80gep3,vmu7c279,FULL STUDY,165.0
83,1381,1,Player object (757),buy,2023-03-05 22:42:57.861947+00:00,"{""priceA"": 120, ""sharesA"": 1, ""secs_since_round_starts"": 21, ""market"": ""A""}",50.0,3.0,4.0,ot80gep3,vmu7c279,FULL STUDY,165.0
84,1382,1,Player object (757),sell,2023-03-05 22:42:59.100067+00:00,"{""priceA"": 115, ""sharesA"": 0, ""secs_since_round_starts"": 22, ""market"": ""A""}",165.0,4.0,5.0,ot80gep3,vmu7c279,FULL STUDY,165.0
85,1383,1,Player object (757),buy,2023-03-05 22:43:00.217567+00:00,"{""priceA"": 115, ""sharesA"": 1, ""secs_since_round_starts"": 23, ""market"": ""A""}",50.0,4.0,5.0,ot80gep3,vmu7c279,FULL STUDY,165.0
86,1384,1,Player object (757),sell,2023-03-05 22:43:01.486290+00:00,"{""priceA"": 115, ""sharesA"": 0, ""secs_since_round_starts"": 24, ""market"": ""A""}",165.0,4.0,5.0,ot80gep3,vmu7c279,FULL STUDY,165.0
87,1385,1,Player object (757),buy,2023-03-05 22:43:02.286990+00:00,"{""priceA"": 115, ""sharesA"": 1, ""secs_since_round_starts"": 25, ""market"": ""A""}",50.0,4.0,5.0,ot80gep3,vmu7c279,FULL STUDY,165.0
88,1386,1,Player object (757),sell,2023-03-05 22:43:04.611954+00:00,"{""priceA"": 105, ""sharesA"": 0, ""secs_since_round_starts"": 28, ""market"": ""A""}",155.0,5.0,6.0,ot80gep3,vmu7c279,FULL STUDY,165.0
89,1387,1,Player object (757),buy,2023-03-05 22:43:07.139092+00:00,"{""priceA"": 105, ""sharesA"": 1, ""secs_since_round_starts"": 30, ""market"": ""A""}",50.0,5.0,6.0,ot80gep3,vmu7c279,FULL STUDY,165.0
90,1388,1,Player object (757),sell,2023-03-05 22:43:09.908857+00:00,"{""priceA"": 120, ""sharesA"": 0, ""secs_since_round_starts"": 33, ""market"": ""A""}",170.0,6.0,7.0,ot80gep3,vmu7c279,FULL STUDY,165.0
91,1389,1,Player object (757),buy,2023-03-05 22:43:15.829416+00:00,"{""priceA"": 135, ""sharesA"": 1, ""secs_since_round_starts"": 39, ""market"": ""A""}",35.0,7.0,8.0,ot80gep3,vmu7c279,FULL STUDY,165.0
92,1390,1,Player object (757),sell,2023-03-05 22:43:28.164696+00:00,"{""priceA"": 130, ""sharesA"": 0, ""secs_since_round_starts"": 51, ""market"": ""A""}",165.0,9.0,9.0,ot80gep3,vmu7c279,FULL STUDY,165.0
93,1391,1,Player object (757),GAME_ENDS,2023-03-05 22:43:31.168959+00:00,"{""priceA"": 130, ""sharesA"": 0, ""secs_since_round_starts"": 54}",165.0,10.0,9.0,ot80gep3,vmu7c279,FULL STUDY,165.0
94,1477,1,Player object (758),GAME_STARTS,2023-03-06 01:45:40.983463+00:00,"{""priceA"": 100, ""sharesA"": 1, ""secs_since_round_starts"": 0}",50.0,,,93y42seh,vmu7c279,FULL STUDY,190.0
95,1478,1,Player object (758),sell,2023-03-06 01:45:58.820814+00:00,"{""priceA"": 120, ""sharesA"": 0, ""secs_since_round_starts"": 18, ""market"": ""A""}",170.0,3.0,1.0,93y42seh,vmu7c279,FULL STUDY,190.0
96,1479,1,Player object (758),buy,2023-03-06 01:46:12.656329+00:00,"{""priceA"": 105, ""sharesA"": 1, ""secs_since_round_starts"": 32, ""market"": ""A""}",65.0,5.0,2.0,93y42seh,vmu7c279,FULL STUDY,190.0
97,1480,1,Player object (758),sell,2023-03-06 01:46:20.691377+00:00,"{""priceA"": 135, ""sharesA"": 0, ""secs_since_round_starts"": 39, ""market"": ""A""}",200.0,7.0,3.0,93y42seh,vmu7c279,FULL STUDY,190.0
98,1481,1,Player object (758),buy,2023-03-06 01:46:28.990743+00:00,"{""priceA"": 140, ""sharesA"": 1, ""secs_since_round_starts"": 48, ""market"": ""A""}",60.0,8.0,4.0,93y42seh,vmu7c279,FULL STUDY,190.0
99,1554,1,Player object (759),GAME_STARTS,2023-03-06 02:02:41.079383+00:00,"{""priceA"": 100, ""sharesA"": 1, ""secs_since_round_starts"": 0}",50.0,,,mbj7g6v1,vmu7c279,FULL STUDY,190.0
100,1561,1,Player object (759),sell,2023-03-06 02:03:26.650374+00:00,"{""priceA"": 140, ""sharesA"": 0, ""secs_since_round_starts"": 45, ""market"": ""A""}",190.0,8.0,1.0,mbj7g6v1,vmu7c279,FULL STUDY,190.0
101,1562,1,Player object (759),buy,2023-03-06 02:03:31.833061+00:00,"{""priceA"": 130, ""sharesA"": 1, ""secs_since_round_starts"": 50, ""market"": ""A""}",60.0,9.0,2.0,mbj7g6v1,vmu7c279,FULL STUDY,190.0
102,1564,1,Player object (759),GAME_ENDS,2023-03-06 02:03:35.570372+00:00,"{""priceA"": 130, ""sharesA"": 1, ""secs_since_round_starts"": 54}",60.0,10.0,2.0,mbj7g6v1,vmu7c279,FULL STUDY,190.0
103,1651,1,Player object (766),GAME_STARTS,2023-03-07 04:04:39.680771+00:00,"{""priceA"": 100, ""sharesA"": 1, ""secs_since_round_starts"": 0}",50.0,,,7eu86eyg,vmu7c279,FULL STUDY,170.0
104,1652,1,Player object (766),sell,2023-03-07 04:04:57.559270+00:00,"{""priceA"": 120, ""sharesA"": 0, ""secs_since_round_starts"": 18, ""market"": ""A""}",170.0,3.0,1.0,7eu86eyg,vmu7c279,FULL STUDY,170.0
105,1653,1,Player object (766),GAME_ENDS,2023-03-07 04:05:34.166767+00:00,"{""priceA"": 130, ""sharesA"": 0, ""secs_since_round_starts"": 54}",170.0,10.0,1.0,7eu86eyg,vmu7c279,FULL STUDY,170.0
106,1688,1,Player object (764),GAME_STARTS,2023-03-07 04:19:55.508465+00:00,"{""priceA"": 100, ""sharesA"": 1, ""secs_since_round_starts"": 0}",50.0,,,y0d7uk3z,vmu7c279,FULL STUDY,190.0
107,1691,1,Player object (764),sell,2023-03-07 04:20:41.754217+00:00,"{""priceA"": 140, ""sharesA"": 0, ""secs_since_round_starts"": 46, ""market"": ""A""}",190.0,8.0,1.0,y0d7uk3z,vmu7c279,FULL STUDY,190.0
108,1692,1,Player object (764),GAME_ENDS,2023-03-07 04:20:50.062607+00:00,"{""priceA"": 130, ""sharesA"": 0, ""secs_since_round_starts"": 54}",190.0,10.0,1.0,y0d7uk3z,vmu7c279,FULL STUDY,190.0
109,1767,1,Player object (768),GAME_STARTS,2023-03-07 15:00:44.957732+00:00,"{""priceA"": 100, ""sharesA"": 1, ""secs_since_round_starts"": 0}",50.0,,,p4esvzkg,vmu7c279,FULL STUDY,180.0
110,1768,1,Player object (768),sell,2023-03-07 15:01:14.733395+00:00,"{""priceA"": 130, ""sharesA"": 0, ""secs_since_round_starts"": 29, ""market"": ""A""}",180.0,5.0,1.0,p4esvzkg,vmu7c279,FULL STUDY,180.0
111,1826,1,Player object (772),GAME_STARTS,2023-03-07 18:32:21.492304+00:00,"{""priceA"": 100, ""sharesA"": 1, ""secs_since_round_starts"": 1}",50.0,,,bi5jp617,vmu7c279,FULL STUDY,180.0
112,1899,1,Player object (774),GAME_STARTS,2023-03-07 20:56:00.157560+00:00,"{""priceA"": 100, ""sharesA"": 1, ""secs_since_round_starts"": 0}",50.0,,,pg5m7phh,vmu7c279,FULL STUDY,190.0
113,1900,1,Player object (774),GAME_ENDS,2023-03-07 20:56:54.706937+00:00,"{""priceA"": 140, ""sharesA"": 1, ""secs_since_round_starts"": 54}",50.0,10.0,,pg5m7phh,vmu7c279,FULL STUDY,190.0
114,1934,1,Player object (777),GAME_STARTS,2023-03-08 01:37:46.717460+00:00,"{""priceA"": 100, ""sharesA"": 1, ""secs_since_round_starts"": 0}",50.0,,,wrahuh7u,vmu7c279,FULL STUDY,180.0
115,1935,1,Player object (777),GAME_ENDS,2023-03-08 01:38:44.934198+00:00,"{""priceA"": 130, ""sharesA"": 1, ""secs_since_round_starts"": 58}",50.0,10.0,,wrahuh7u,vmu7c279,FULL STUDY,180.0
116,1999,1,Player object (780),GAME_STARTS,2023-03-08 02:36:54.595701+00:00,"{""priceA"": 100, ""sharesA"": 1, ""secs_since_round_starts"": 0}",50.0,,,9xz1zuoz,vmu7c279,FULL STUDY,185.0
117,2000,1,Player object (780),sell,2023-03-08 02:37:20.165677+00:00,"{""priceA"": 135, ""sharesA"": 0, ""secs_since_round_starts"": 25, ""market"": ""A""}",185.0,4.0,1.0,9xz1zuoz,vmu7c279,FULL STUDY,185.0
118,2001,1,Player object (780),GAME_ENDS,2023-03-08 02:37:48.742634+00:00,"{""priceA"": 140, ""sharesA"": 0, ""secs_since_round_starts"": 54}",185.0,10.0,1.0,9xz1zuoz,vmu7c279,FULL STUDY,185.0
119,2047,1,Player object (784),GAME_STARTS,2023-03-08 03:42:45.660950+00:00,"{""priceA"": 100, ""sharesA"": 1, ""secs_since_round_starts"": 0}",50.0,,,bi2jfx42,vmu7c279,FULL STUDY,190.0
120,2048,1,Player object (784),sell,2023-03-08 03:42:53.653348+00:00,"{""priceA"": 110, ""sharesA"": 0, ""secs_since_round_starts"": 8, ""market"": ""A""}",160.0,1.0,1.0,bi2jfx42,vmu7c279,FULL STUDY,190.0
121,2049,1,Player object (784),buy,2023-03-08 03:43:13.947934+00:00,"{""priceA"": 105, ""sharesA"": 1, ""secs_since_round_starts"": 28, ""market"": ""A""}",55.0,5.0,2.0,bi2jfx42,vmu7c279,FULL STUDY,190.0
122,2050,1,Player object (784),sell,2023-03-08 03:43:26.589492+00:00,"{""priceA"": 135, ""sharesA"": 0, ""secs_since_round_starts"": 40, ""market"": ""A""}",190.0,7.0,3.0,bi2jfx42,vmu7c279,FULL STUDY,190.0
123,2108,1,Player object (786),GAME_STARTS,2023-03-08 04:05:56.334824+00:00,"{""priceA"": 100, ""sharesA"": 1, ""secs_since_round_starts"": 0}",50.0,,,l1c1hcmk,vmu7c279,FULL STUDY,180.0
124,2109,1,Player object (785),GAME_STARTS,2023-03-08 04:05:59.497811+00:00,"{""priceA"": 100, ""sharesA"": 1, ""secs_since_round_starts"": 0}",50.0,,,j127swcg,vmu7c279,FULL STUDY,180.0
125,2110,1,Player object (787),GAME_STARTS,2023-03-08 04:06:01.327272+00:00,"{""priceA"": 100, ""sharesA"": 1, ""secs_since_round_starts"": 0}",50.0,,,izacs7fd,vmu7c279,FULL STUDY,180.0
126,2113,1,Player object (786),sell,2023-03-08 04:06:27.493622+00:00,"{""priceA"": 130, ""sharesA"": 0, ""secs_since_round_starts"": 31, ""market"": ""A""}",180.0,5.0,1.0,l1c1hcmk,vmu7c279,FULL STUDY,180.0
127,2114,1,Player object (786),buy,2023-03-08 04:06:36.490114+00:00,"{""priceA"": 140, ""sharesA"": 1, ""secs_since_round_starts"": 40, ""market"": ""A""}",40.0,7.0,2.0,l1c1hcmk,vmu7c279,FULL STUDY,180.0
128,2127,1,Player object (788),GAME_STARTS,2023-03-08 04:10:12.973889+00:00,"{""priceA"": 100, ""sharesA"": 1, ""secs_since_round_starts"": 0}",50.0,,,dhiqzueo,vmu7c279,FULL STUDY,190.0
129,2132,1,Player object (788),sell,2023-03-08 04:11:00.147385+00:00,"{""priceA"": 140, ""sharesA"": 0, ""secs_since_round_starts"": 47, ""market"": ""A""}",190.0,8.0,1.0,dhiqzueo,vmu7c279,FULL STUDY,190.0
130,2133,1,Player object (788),GAME_ENDS,2023-03-08 04:11:07.537398+00:00,"{""priceA"": 130, ""sharesA"": 0, ""secs_since_round_starts"": 54}",190.0,10.0,1.0,dhiqzueo,vmu7c279,FULL STUDY,190.0
131,2154,1,Player object (776),GAME_STARTS,2023-03-08 04:13:44.799620+00:00,"{""priceA"": 100, ""sharesA"": 1, ""secs_since_round_starts"": 0}",50.0,,,k744ov5s,vmu7c279,FULL STUDY,155.0
132,2160,1,Player object (776),sell,2023-03-08 04:14:14.865346+00:00,"{""priceA"": 105, ""sharesA"": 0, ""secs_since_round_starts"": 30, ""market"": ""A""}",155.0,5.0,1.0,k744ov5s,vmu7c279,FULL STUDY,155.0
133,2163,1,Player object (776),buy,2023-03-08 04:14:37.875578+00:00,"{""priceA"": 130, ""sharesA"": 1, ""secs_since_round_starts"": 53, ""market"": ""A""}",25.0,9.0,2.0,k744ov5s,vmu7c279,FULL STUDY,155.0
134,2359,1,Player object (789),GAME_STARTS,2023-03-08 04:52:25.417550+00:00,"{""priceA"": 100, ""sharesA"": 1, ""secs_since_round_starts"": 3}",50.0,,,yq3wii2n,vmu7c279,FULL STUDY,200.0
135,2360,1,Player object (789),sell,2023-03-08 04:52:41.664172+00:00,"{""priceA"": 120, ""sharesA"": 0, ""secs_since_round_starts"": 19, ""market"": ""A""}",170.0,3.0,1.0,yq3wii2n,vmu7c279,FULL STUDY,200.0
136,2361,1,Player object (789),buy,2023-03-08 04:52:51.138948+00:00,"{""priceA"": 105, ""sharesA"": 1, ""secs_since_round_starts"": 29, ""market"": ""A""}",65.0,5.0,2.0,yq3wii2n,vmu7c279,FULL STUDY,200.0
137,2362,1,Player object (789),sell,2023-03-08 04:53:01.991330+00:00,"{""priceA"": 135, ""sharesA"": 0, ""secs_since_round_starts"": 39, ""market"": ""A""}",200.0,7.0,3.0,yq3wii2n,vmu7c279,FULL STUDY,200.0
138,2393,1,Player object (790),GAME_STARTS,2023-03-08 05:06:48.369467+00:00,"{""priceA"": 100, ""sharesA"": 1, ""secs_since_round_starts"": 0}",50.0,,,gnzz7gc4,vmu7c279,FULL STUDY,185.0
139,2394,1,Player object (790),sell,2023-03-08 05:06:55.872213+00:00,"{""priceA"": 110, ""sharesA"": 0, ""secs_since_round_starts"": 7, ""market"": ""A""}",160.0,1.0,1.0,gnzz7gc4,vmu7c279,FULL STUDY,185.0
140,2395,1,Player object (790),buy,2023-03-08 05:07:17.367588+00:00,"{""priceA"": 105, ""sharesA"": 1, ""secs_since_round_starts"": 29, ""market"": ""A""}",55.0,5.0,2.0,gnzz7gc4,vmu7c279,FULL STUDY,185.0
141,2398,1,Player object (790),sell,2023-03-08 05:07:38.425476+00:00,"{""priceA"": 130, ""sharesA"": 0, ""secs_since_round_starts"": 50, ""market"": ""A""}",185.0,9.0,3.0,gnzz7gc4,vmu7c279,FULL STUDY,185.0
142,2400,1,Player object (790),GAME_ENDS,2023-03-08 05:07:42.928499+00:00,"{""priceA"": 130, ""sharesA"": 0, ""secs_since_round_starts"": 54}",185.0,10.0,3.0,gnzz7gc4,vmu7c279,FULL STUDY,185.0
143,2518,1,Player object (793),GAME_STARTS,2023-03-08 06:59:37.708188+00:00,"{""priceA"": 100, ""sharesA"": 1, ""secs_since_round_starts"": 0}",50.0,,,7qzgrb99,vmu7c279,FULL STUDY,165.0
144,2519,1,Player object (793),sell,2023-03-08 07:00:00.134175+00:00,"{""priceA"": 115, ""sharesA"": 0, ""secs_since_round_starts"": 22, ""market"": ""A""}",165.0,4.0,1.0,7qzgrb99,vmu7c279,FULL STUDY,165.0
145,2520,1,Player object (793),GAME_ENDS,2023-03-08 07:00:32.220273+00:00,"{""priceA"": 130, ""sharesA"": 0, ""secs_since_round_starts"": 54}",165.0,10.0,1.0,7qzgrb99,vmu7c279,FULL STUDY,165.0
146,2585,1,Player object (792),GAME_STARTS,2023-03-08 08:12:32.743836+00:00,"{""priceA"": 100, ""sharesA"": 1, ""secs_since_round_starts"": 0}",50.0,,,5ymfsw49,vmu7c279,FULL STUDY,180.0
147,2586,1,Player object (792),sell,2023-03-08 08:13:01.325240+00:00,"{""priceA"": 130, ""sharesA"": 0, ""secs_since_round_starts"": 28, ""market"": ""A""}",180.0,5.0,1.0,5ymfsw49,vmu7c279,FULL STUDY,180.0
148,2587,1,Player object (792),buy,2023-03-08 08:13:11.626611+00:00,"{""priceA"": 140, ""sharesA"": 1, ""secs_since_round_starts"": 38, ""market"": ""A""}",40.0,7.0,2.0,5ymfsw49,vmu7c279,FULL STUDY,180.0
149,2588,1,Player object (792),sell,2023-03-08 08:13:22.741272+00:00,"{""priceA"": 140, ""sharesA"": 0, ""secs_since_round_starts"": 50, ""market"": ""A""}",180.0,9.0,3.0,5ymfsw49,vmu7c279,FULL STUDY,180.0
150,2713,1,Player object (795),GAME_STARTS,2023-03-08 17:07:51.706930+00:00,"{""priceA"": 100, ""sharesA"": 1, ""secs_since_round_starts"": 0}",50.0,,,fcp9s0do,vmu7c279,FULL STUDY,205.0
151,2714,1,Player object (795),sell,2023-03-08 17:08:08.929550+00:00,"{""priceA"": 120, ""sharesA"": 0, ""secs_since_round_starts"": 17, ""market"": ""A""}",170.0,3.0,1.0,fcp9s0do,vmu7c279,FULL STUDY,205.0
152,2715,1,Player object (795),buy,2023-03-08 17:08:23.467813+00:00,"{""priceA"": 105, ""sharesA"": 1, ""secs_since_round_starts"": 32, ""market"": ""A""}",65.0,5.0,2.0,fcp9s0do,vmu7c279,FULL STUDY,205.0
153,2716,1,Player object (795),sell,2023-03-08 17:08:36.123216+00:00,"{""priceA"": 140, ""sharesA"": 0, ""secs_since_round_starts"": 44, ""market"": ""A""}",205.0,8.0,3.0,fcp9s0do,vmu7c279,FULL STUDY,205.0
154,2786,1,Player object (798),GAME_STARTS,2023-03-08 23:21:03.728440+00:00,"{""priceA"": 100, ""sharesA"": 1, ""secs_since_round_starts"": 0}",50.0,,,iwam94ip,vmu7c279,FULL STUDY,160.0
155,2787,1,Player object (798),sell,2023-03-08 23:21:13.564234+00:00,"{""priceA"": 105, ""sharesA"": 0, ""secs_since_round_starts"": 10, ""market"": ""A""}",155.0,1.0,1.0,iwam94ip,vmu7c279,FULL STUDY,160.0
156,2788,1,Player object (798),buy,2023-03-08 23:21:17.106088+00:00,"{""priceA"": 120, ""sharesA"": 1, ""secs_since_round_starts"": 13, ""market"": ""A""}",35.0,2.0,2.0,iwam94ip,vmu7c279,FULL STUDY,160.0
157,2789,1,Player object (798),sell,2023-03-08 23:21:22.369416+00:00,"{""priceA"": 125, ""sharesA"": 0, ""secs_since_round_starts"": 18, ""market"": ""A""}",160.0,3.0,3.0,iwam94ip,vmu7c279,FULL STUDY,160.0
158,2790,1,Player object (798),buy,2023-03-08 23:21:29.405945+00:00,"{""priceA"": 135, ""sharesA"": 1, ""secs_since_round_starts"": 25, ""market"": ""A""}",25.0,4.0,4.0,iwam94ip,vmu7c279,FULL STUDY,160.0
159,2791,1,Player object (798),sell,2023-03-08 23:21:41.210712+00:00,"{""priceA"": 125, ""sharesA"": 0, ""secs_since_round_starts"": 37, ""market"": ""A""}",150.0,6.0,5.0,iwam94ip,vmu7c279,FULL STUDY,160.0
160,2792,1,Player object (798),buy,2023-03-08 23:21:45.112911+00:00,"{""priceA"": 140, ""sharesA"": 1, ""secs_since_round_starts"": 41, ""market"": ""A""}",10.0,7.0,6.0,iwam94ip,vmu7c279,FULL STUDY,160.0
161,2793,1,Player object (798),sell,2023-03-08 23:21:51.228803+00:00,"{""priceA"": 150, ""sharesA"": 0, ""secs_since_round_starts"": 47, ""market"": ""A""}",160.0,8.0,7.0,iwam94ip,vmu7c279,FULL STUDY,160.0
162,2794,1,Player object (798),buy,2023-03-08 23:21:55.902487+00:00,"{""priceA"": 140, ""sharesA"": 1, ""secs_since_round_starts"": 52, ""market"": ""A""}",20.0,9.0,8.0,iwam94ip,vmu7c279,FULL STUDY,160.0
163,2795,1,Player object (798),GAME_ENDS,2023-03-08 23:21:58.293942+00:00,"{""priceA"": 140, ""sharesA"": 1, ""secs_since_round_starts"": 54}",20.0,10.0,8.0,iwam94ip,vmu7c279,FULL STUDY,160.0
164,2851,1,Player object (799),GAME_STARTS,2023-03-08 23:39:26.902230+00:00,"{""priceA"": 100, ""sharesA"": 1, ""secs_since_round_starts"": 0}",50.0,,,41x3lsag,vmu7c279,FULL STUDY,175.0
165,2853,1,Player object (799),sell,2023-03-08 23:39:34.163899+00:00,"{""priceA"": 110, ""sharesA"": 0, ""secs_since_round_starts"": 7, ""market"": ""A""}",160.0,1.0,1.0,41x3lsag,vmu7c279,FULL STUDY,175.0
166,2854,1,Player object (799),buy,2023-03-08 23:39:36.770716+00:00,"{""priceA"": 110, ""sharesA"": 1, ""secs_since_round_starts"": 9, ""market"": ""A""}",50.0,1.0,1.0,41x3lsag,vmu7c279,FULL STUDY,175.0
167,2855,1,Player object (799),sell,2023-03-08 23:39:38.904892+00:00,"{""priceA"": 115, ""sharesA"": 0, ""secs_since_round_starts"": 12, ""market"": ""A""}",165.0,2.0,2.0,41x3lsag,vmu7c279,FULL STUDY,175.0
168,2856,1,Player object (799),buy,2023-03-08 23:39:40.195553+00:00,"{""priceA"": 115, ""sharesA"": 1, ""secs_since_round_starts"": 13, ""market"": ""A""}",50.0,2.0,2.0,41x3lsag,vmu7c279,FULL STUDY,175.0
169,2858,1,Player object (799),sell,2023-03-08 23:39:42.110819+00:00,"{""priceA"": 115, ""sharesA"": 0, ""secs_since_round_starts"": 15, ""market"": ""A""}",165.0,2.0,2.0,41x3lsag,vmu7c279,FULL STUDY,175.0
170,2859,1,Player object (799),buy,2023-03-08 23:39:43.701668+00:00,"{""priceA"": 120, ""sharesA"": 1, ""secs_since_round_starts"": 16, ""market"": ""A""}",45.0,3.0,3.0,41x3lsag,vmu7c279,FULL STUDY,175.0
171,2862,1,Player object (799),sell,2023-03-08 23:39:53.480273+00:00,"{""priceA"": 115, ""sharesA"": 0, ""secs_since_round_starts"": 26, ""market"": ""A""}",160.0,4.0,4.0,41x3lsag,vmu7c279,FULL STUDY,175.0
172,2863,1,Player object (799),buy,2023-03-08 23:39:55.901859+00:00,"{""priceA"": 105, ""sharesA"": 1, ""secs_since_round_starts"": 29, ""market"": ""A""}",55.0,5.0,5.0,41x3lsag,vmu7c279,FULL STUDY,175.0
173,2865,1,Player object (799),sell,2023-03-08 23:40:01.392397+00:00,"{""priceA"": 120, ""sharesA"": 0, ""secs_since_round_starts"": 34, ""market"": ""A""}",175.0,6.0,6.0,41x3lsag,vmu7c279,FULL STUDY,175.0
174,2866,1,Player object (799),buy,2023-03-08 23:40:18.000826+00:00,"{""priceA"": 130, ""sharesA"": 1, ""secs_since_round_starts"": 51, ""market"": ""A""}",45.0,9.0,7.0,41x3lsag,vmu7c279,FULL STUDY,175.0
175,2868,1,Player object (799),GAME_ENDS,2023-03-08 23:40:21.670461+00:00,"{""priceA"": 130, ""sharesA"": 1, ""secs_since_round_starts"": 54}",45.0,10.0,7.0,41x3lsag,vmu7c279,FULL STUDY,175.0
176,2962,1,Player object (800),GAME_STARTS,2023-03-08 23:58:55.172959+00:00,"{""priceA"": 100, ""sharesA"": 1, ""secs_since_round_starts"": 0}",50.0,,,cj9n1uj4,vmu7c279,FULL STUDY,165.0
177,2964,1,Player object (800),sell,2023-03-08 23:59:07.255803+00:00,"{""priceA"": 115, ""sharesA"": 0, ""secs_since_round_starts"": 12, ""market"": ""A""}",165.0,2.0,1.0,cj9n1uj4,vmu7c279,FULL STUDY,165.0
178,2965,1,Player object (800),buy,2023-03-08 23:59:09.277840+00:00,"{""priceA"": 115, ""sharesA"": 1, ""secs_since_round_starts"": 14, ""market"": ""A""}",50.0,2.0,1.0,cj9n1uj4,vmu7c279,FULL STUDY,165.0
179,2966,1,Player object (800),sell,2023-03-08 23:59:12.180608+00:00,"{""priceA"": 120, ""sharesA"": 0, ""secs_since_round_starts"": 17, ""market"": ""A""}",170.0,3.0,2.0,cj9n1uj4,vmu7c279,FULL STUDY,165.0
180,2967,1,Player object (800),buy,2023-03-08 23:59:13.963480+00:00,"{""priceA"": 120, ""sharesA"": 1, ""secs_since_round_starts"": 18, ""market"": ""A""}",50.0,3.0,2.0,cj9n1uj4,vmu7c279,FULL STUDY,165.0
181,2968,1,Player object (800),sell,2023-03-08 23:59:15.628279+00:00,"{""priceA"": 120, ""sharesA"": 0, ""secs_since_round_starts"": 20, ""market"": ""A""}",170.0,3.0,2.0,cj9n1uj4,vmu7c279,FULL STUDY,165.0
182,2970,1,Player object (800),buy,2023-03-08 23:59:16.974061+00:00,"{""priceA"": 115, ""sharesA"": 1, ""secs_since_round_starts"": 21, ""market"": ""A""}",55.0,4.0,3.0,cj9n1uj4,vmu7c279,FULL STUDY,165.0
183,2971,1,Player object (800),sell,2023-03-08 23:59:18.038116+00:00,"{""priceA"": 115, ""sharesA"": 0, ""secs_since_round_starts"": 22, ""market"": ""A""}",170.0,4.0,3.0,cj9n1uj4,vmu7c279,FULL STUDY,165.0
184,2972,1,Player object (800),buy,2023-03-08 23:59:21.672496+00:00,"{""priceA"": 115, ""sharesA"": 1, ""secs_since_round_starts"": 26, ""market"": ""A""}",55.0,4.0,3.0,cj9n1uj4,vmu7c279,FULL STUDY,165.0
185,2973,1,Player object (800),sell,2023-03-08 23:59:24.495548+00:00,"{""priceA"": 105, ""sharesA"": 0, ""secs_since_round_starts"": 29, ""market"": ""A""}",160.0,5.0,4.0,cj9n1uj4,vmu7c279,FULL STUDY,165.0
186,2974,1,Player object (800),buy,2023-03-08 23:59:25.680016+00:00,"{""priceA"": 105, ""sharesA"": 1, ""secs_since_round_starts"": 30, ""market"": ""A""}",55.0,5.0,4.0,cj9n1uj4,vmu7c279,FULL STUDY,165.0
187,2975,1,Player object (800),sell,2023-03-08 23:59:27.755772+00:00,"{""priceA"": 105, ""sharesA"": 0, ""secs_since_round_starts"": 32, ""market"": ""A""}",160.0,5.0,4.0,cj9n1uj4,vmu7c279,FULL STUDY,165.0
188,2976,1,Player object (800),buy,2023-03-08 23:59:29.085562+00:00,"{""priceA"": 120, ""sharesA"": 1, ""secs_since_round_starts"": 33, ""market"": ""A""}",40.0,6.0,5.0,cj9n1uj4,vmu7c279,FULL STUDY,165.0
189,2977,1,Player object (800),sell,2023-03-08 23:59:29.774776+00:00,"{""priceA"": 120, ""sharesA"": 0, ""secs_since_round_starts"": 34, ""market"": ""A""}",160.0,6.0,5.0,cj9n1uj4,vmu7c279,FULL STUDY,165.0
190,2978,1,Player object (800),buy,2023-03-08 23:59:30.526380+00:00,"{""priceA"": 120, ""sharesA"": 1, ""secs_since_round_starts"": 35, ""market"": ""A""}",40.0,6.0,5.0,cj9n1uj4,vmu7c279,FULL STUDY,165.0
191,2980,1,Player object (800),sell,2023-03-08 23:59:35.530732+00:00,"{""priceA"": 135, ""sharesA"": 0, ""secs_since_round_starts"": 40, ""market"": ""A""}",175.0,7.0,6.0,cj9n1uj4,vmu7c279,FULL STUDY,165.0
192,2981,1,Player object (800),buy,2023-03-08 23:59:36.198513+00:00,"{""priceA"": 135, ""sharesA"": 1, ""secs_since_round_starts"": 41, ""market"": ""A""}",40.0,7.0,6.0,cj9n1uj4,vmu7c279,FULL STUDY,165.0
193,2982,1,Player object (800),sell,2023-03-08 23:59:36.729056+00:00,"{""priceA"": 135, ""sharesA"": 0, ""secs_since_round_starts"": 41, ""market"": ""A""}",175.0,7.0,6.0,cj9n1uj4,vmu7c279,FULL STUDY,165.0
194,2983,1,Player object (800),buy,2023-03-08 23:59:37.265972+00:00,"{""priceA"": 135, ""sharesA"": 1, ""secs_since_round_starts"": 42, ""market"": ""A""}",40.0,7.0,6.0,cj9n1uj4,vmu7c279,FULL STUDY,165.0
195,2984,1,Player object (800),sell,2023-03-08 23:59:37.744488+00:00,"{""priceA"": 135, ""sharesA"": 0, ""secs_since_round_starts"": 42, ""market"": ""A""}",175.0,7.0,6.0,cj9n1uj4,vmu7c279,FULL STUDY,165.0
196,2985,1,Player object (800),buy,2023-03-08 23:59:38.117635+00:00,"{""priceA"": 135, ""sharesA"": 1, ""secs_since_round_starts"": 43, ""market"": ""A""}",40.0,7.0,6.0,cj9n1uj4,vmu7c279,FULL STUDY,165.0
197,2986,1,Player object (800),sell,2023-03-08 23:59:38.523338+00:00,"{""priceA"": 135, ""sharesA"": 0, ""secs_since_round_starts"": 43, ""market"": ""A""}",175.0,7.0,6.0,cj9n1uj4,vmu7c279,FULL STUDY,165.0
198,2987,1,Player object (800),buy,2023-03-08 23:59:39.036760+00:00,"{""priceA"": 140, ""sharesA"": 1, ""secs_since_round_starts"": 43, ""market"": ""A""}",35.0,8.0,7.0,cj9n1uj4,vmu7c279,FULL STUDY,165.0
199,2988,1,Player object (800),sell,2023-03-08 23:59:39.890929+00:00,"{""priceA"": 140, ""sharesA"": 0, ""secs_since_round_starts"": 44, ""market"": ""A""}",175.0,8.0,7.0,cj9n1uj4,vmu7c279,FULL STUDY,165.0
200,2989,1,Player object (800),buy,2023-03-08 23:59:40.385295+00:00,"{""priceA"": 140, ""sharesA"": 1, ""secs_since_round_starts"": 45, ""market"": ""A""}",35.0,8.0,7.0,cj9n1uj4,vmu7c279,FULL STUDY,165.0
201,2990,1,Player object (800),sell,2023-03-08 23:59:40.809058+00:00,"{""priceA"": 140, ""sharesA"": 0, ""secs_since_round_starts"": 45, ""market"": ""A""}",175.0,8.0,7.0,cj9n1uj4,vmu7c279,FULL STUDY,165.0
202,2991,1,Player object (800),buy,2023-03-08 23:59:41.720806+00:00,"{""priceA"": 140, ""sharesA"": 1, ""secs_since_round_starts"": 46, ""market"": ""A""}",35.0,8.0,7.0,cj9n1uj4,vmu7c279,FULL STUDY,165.0
203,2992,1,Player object (800),sell,2023-03-08 23:59:42.435559+00:00,"{""priceA"": 140, ""sharesA"": 0, ""secs_since_round_starts"": 47, ""market"": ""A""}",175.0,8.0,7.0,cj9n1uj4,vmu7c279,FULL STUDY,165.0
204,2993,1,Player object (800),buy,2023-03-08 23:59:42.852728+00:00,"{""priceA"": 140, ""sharesA"": 1, ""secs_since_round_starts"": 47, ""market"": ""A""}",35.0,8.0,7.0,cj9n1uj4,vmu7c279,FULL STUDY,165.0
205,2995,1,Player object (800),sell,2023-03-08 23:59:44.522612+00:00,"{""priceA"": 130, ""sharesA"": 0, ""secs_since_round_starts"": 49, ""market"": ""A""}",165.0,9.0,8.0,cj9n1uj4,vmu7c279,FULL STUDY,165.0
206,2996,1,Player object (800),buy,2023-03-08 23:59:46.190798+00:00,"{""priceA"": 130, ""sharesA"": 1, ""secs_since_round_starts"": 51, ""market"": ""A""}",35.0,9.0,8.0,cj9n1uj4,vmu7c279,FULL STUDY,165.0
207,2997,1,Player object (800),sell,2023-03-08 23:59:47.047196+00:00,"{""priceA"": 130, ""sharesA"": 0, ""secs_since_round_starts"": 51, ""market"": ""A""}",165.0,9.0,8.0,cj9n1uj4,vmu7c279,FULL STUDY,165.0
208,2999,1,Player object (800),GAME_ENDS,2023-03-08 23:59:49.804242+00:00,"{""priceA"": 130, ""sharesA"": 0, ""secs_since_round_starts"": 54}",165.0,10.0,8.0,cj9n1uj4,vmu7c279,FULL STUDY,165.0
209,3075,1,Player object (801),GAME_STARTS,2023-03-09 00:55:40.951130+00:00,"{""priceA"": 100, ""sharesA"": 1, ""secs_since_round_starts"": 0}",50.0,,,1f2rfly4,vmu7c279,FULL STUDY,190.0
210,3076,1,Player object (801),sell,2023-03-09 00:55:52.748282+00:00,"{""priceA"": 115, ""sharesA"": 0, ""secs_since_round_starts"": 11, ""market"": ""A""}",165.0,2.0,1.0,1f2rfly4,vmu7c279,FULL STUDY,190.0
211,3077,1,Player object (801),buy,2023-03-09 00:55:53.402352+00:00,"{""priceA"": 115, ""sharesA"": 1, ""secs_since_round_starts"": 12, ""market"": ""A""}",50.0,2.0,1.0,1f2rfly4,vmu7c279,FULL STUDY,190.0
212,3078,1,Player object (801),sell,2023-03-09 00:55:53.893564+00:00,"{""priceA"": 115, ""sharesA"": 0, ""secs_since_round_starts"": 13, ""market"": ""A""}",165.0,2.0,1.0,1f2rfly4,vmu7c279,FULL STUDY,190.0
213,3079,1,Player object (801),buy,2023-03-09 00:55:54.311602+00:00,"{""priceA"": 115, ""sharesA"": 1, ""secs_since_round_starts"": 13, ""market"": ""A""}",50.0,2.0,1.0,1f2rfly4,vmu7c279,FULL STUDY,190.0
214,3080,1,Player object (801),sell,2023-03-09 00:55:54.912681+00:00,"{""priceA"": 115, ""sharesA"": 0, ""secs_since_round_starts"": 14, ""market"": ""A""}",165.0,2.0,1.0,1f2rfly4,vmu7c279,FULL STUDY,190.0
215,3081,1,Player object (801),buy,2023-03-09 00:55:55.407916+00:00,"{""priceA"": 115, ""sharesA"": 1, ""secs_since_round_starts"": 14, ""market"": ""A""}",50.0,2.0,1.0,1f2rfly4,vmu7c279,FULL STUDY,190.0
216,3082,1,Player object (801),sell,2023-03-09 00:55:56.166886+00:00,"{""priceA"": 115, ""sharesA"": 0, ""secs_since_round_starts"": 15, ""market"": ""A""}",165.0,2.0,1.0,1f2rfly4,vmu7c279,FULL STUDY,190.0
217,3083,1,Player object (801),buy,2023-03-09 00:55:57.292345+00:00,"{""priceA"": 120, ""sharesA"": 1, ""secs_since_round_starts"": 16, ""market"": ""A""}",45.0,3.0,2.0,1f2rfly4,vmu7c279,FULL STUDY,190.0
218,3084,1,Player object (801),sell,2023-03-09 00:55:57.831890+00:00,"{""priceA"": 120, ""sharesA"": 0, ""secs_since_round_starts"": 16, ""market"": ""A""}",165.0,3.0,2.0,1f2rfly4,vmu7c279,FULL STUDY,190.0
219,3085,1,Player object (801),buy,2023-03-09 00:55:58.313281+00:00,"{""priceA"": 120, ""sharesA"": 1, ""secs_since_round_starts"": 17, ""market"": ""A""}",45.0,3.0,2.0,1f2rfly4,vmu7c279,FULL STUDY,190.0
220,3086,1,Player object (801),sell,2023-03-09 00:55:58.780847+00:00,"{""priceA"": 120, ""sharesA"": 0, ""secs_since_round_starts"": 17, ""market"": ""A""}",165.0,3.0,2.0,1f2rfly4,vmu7c279,FULL STUDY,190.0
221,3087,1,Player object (801),buy,2023-03-09 00:55:59.202851+00:00,"{""priceA"": 120, ""sharesA"": 1, ""secs_since_round_starts"": 18, ""market"": ""A""}",45.0,3.0,2.0,1f2rfly4,vmu7c279,FULL STUDY,190.0
222,3088,1,Player object (801),sell,2023-03-09 00:55:59.582814+00:00,"{""priceA"": 120, ""sharesA"": 0, ""secs_since_round_starts"": 18, ""market"": ""A""}",165.0,3.0,2.0,1f2rfly4,vmu7c279,FULL STUDY,190.0
223,3089,1,Player object (801),buy,2023-03-09 00:55:59.934522+00:00,"{""priceA"": 120, ""sharesA"": 1, ""secs_since_round_starts"": 19, ""market"": ""A""}",45.0,3.0,2.0,1f2rfly4,vmu7c279,FULL STUDY,190.0
224,3090,1,Player object (801),sell,2023-03-09 00:56:00.367792+00:00,"{""priceA"": 120, ""sharesA"": 0, ""secs_since_round_starts"": 19, ""market"": ""A""}",165.0,3.0,2.0,1f2rfly4,vmu7c279,FULL STUDY,190.0
225,3091,1,Player object (801),buy,2023-03-09 00:56:00.856217+00:00,"{""priceA"": 120, ""sharesA"": 1, ""secs_since_round_starts"": 20, ""market"": ""A""}",45.0,3.0,2.0,1f2rfly4,vmu7c279,FULL STUDY,190.0
226,3092,1,Player object (801),sell,2023-03-09 00:56:02.235281+00:00,"{""priceA"": 120, ""sharesA"": 0, ""secs_since_round_starts"": 21, ""market"": ""A""}",165.0,3.0,2.0,1f2rfly4,vmu7c279,FULL STUDY,190.0
227,3093,1,Player object (801),buy,2023-03-09 00:56:03.168573+00:00,"{""priceA"": 115, ""sharesA"": 1, ""secs_since_round_starts"": 22, ""market"": ""A""}",50.0,4.0,3.0,1f2rfly4,vmu7c279,FULL STUDY,190.0
228,3094,1,Player object (801),sell,2023-03-09 00:56:03.675685+00:00,"{""priceA"": 115, ""sharesA"": 0, ""secs_since_round_starts"": 22, ""market"": ""A""}",165.0,4.0,3.0,1f2rfly4,vmu7c279,FULL STUDY,190.0
229,3095,1,Player object (801),buy,2023-03-09 00:56:04.138503+00:00,"{""priceA"": 115, ""sharesA"": 1, ""secs_since_round_starts"": 23, ""market"": ""A""}",50.0,4.0,3.0,1f2rfly4,vmu7c279,FULL STUDY,190.0
230,3096,1,Player object (801),sell,2023-03-09 00:56:04.606140+00:00,"{""priceA"": 115, ""sharesA"": 0, ""secs_since_round_starts"": 23, ""market"": ""A""}",165.0,4.0,3.0,1f2rfly4,vmu7c279,FULL STUDY,190.0
231,3097,1,Player object (801),buy,2023-03-09 00:56:05.179169+00:00,"{""priceA"": 115, ""sharesA"": 1, ""secs_since_round_starts"": 24, ""market"": ""A""}",50.0,4.0,3.0,1f2rfly4,vmu7c279,FULL STUDY,190.0
232,3098,1,Player object (801),sell,2023-03-09 00:56:05.947894+00:00,"{""priceA"": 115, ""sharesA"": 0, ""secs_since_round_starts"": 25, ""market"": ""A""}",165.0,4.0,3.0,1f2rfly4,vmu7c279,FULL STUDY,190.0
233,3099,1,Player object (801),buy,2023-03-09 00:56:06.636524+00:00,"{""priceA"": 115, ""sharesA"": 1, ""secs_since_round_starts"": 25, ""market"": ""A""}",50.0,4.0,3.0,1f2rfly4,vmu7c279,FULL STUDY,190.0
234,3100,1,Player object (801),sell,2023-03-09 00:56:07.040227+00:00,"{""priceA"": 115, ""sharesA"": 0, ""secs_since_round_starts"": 26, ""market"": ""A""}",165.0,4.0,3.0,1f2rfly4,vmu7c279,FULL STUDY,190.0
235,3101,1,Player object (801),buy,2023-03-09 00:56:07.519061+00:00,"{""priceA"": 115, ""sharesA"": 1, ""secs_since_round_starts"": 26, ""market"": ""A""}",50.0,4.0,3.0,1f2rfly4,vmu7c279,FULL STUDY,190.0
236,3102,1,Player object (801),sell,2023-03-09 00:56:09.269203+00:00,"{""priceA"": 105, ""sharesA"": 0, ""secs_since_round_starts"": 28, ""market"": ""A""}",155.0,5.0,4.0,1f2rfly4,vmu7c279,FULL STUDY,190.0
237,3103,1,Player object (801),buy,2023-03-09 00:56:09.771524+00:00,"{""priceA"": 105, ""sharesA"": 1, ""secs_since_round_starts"": 28, ""market"": ""A""}",50.0,5.0,4.0,1f2rfly4,vmu7c279,FULL STUDY,190.0
238,3104,1,Player object (801),sell,2023-03-09 00:56:10.316851+00:00,"{""priceA"": 105, ""sharesA"": 0, ""secs_since_round_starts"": 29, ""market"": ""A""}",155.0,5.0,4.0,1f2rfly4,vmu7c279,FULL STUDY,190.0
239,3105,1,Player object (801),buy,2023-03-09 00:56:10.805862+00:00,"{""priceA"": 105, ""sharesA"": 1, ""secs_since_round_starts"": 29, ""market"": ""A""}",50.0,5.0,4.0,1f2rfly4,vmu7c279,FULL STUDY,190.0
240,3106,1,Player object (801),sell,2023-03-09 00:56:11.261790+00:00,"{""priceA"": 105, ""sharesA"": 0, ""secs_since_round_starts"": 30, ""market"": ""A""}",155.0,5.0,4.0,1f2rfly4,vmu7c279,FULL STUDY,190.0
241,3107,1,Player object (801),buy,2023-03-09 00:56:11.768504+00:00,"{""priceA"": 105, ""sharesA"": 1, ""secs_since_round_starts"": 30, ""market"": ""A""}",50.0,5.0,4.0,1f2rfly4,vmu7c279,FULL STUDY,190.0
242,3108,1,Player object (801),sell,2023-03-09 00:56:14.629284+00:00,"{""priceA"": 120, ""sharesA"": 0, ""secs_since_round_starts"": 33, ""market"": ""A""}",170.0,6.0,5.0,1f2rfly4,vmu7c279,FULL STUDY,190.0
243,3109,1,Player object (801),buy,2023-03-09 00:56:15.469577+00:00,"{""priceA"": 120, ""sharesA"": 1, ""secs_since_round_starts"": 34, ""market"": ""A""}",50.0,6.0,5.0,1f2rfly4,vmu7c279,FULL STUDY,190.0
244,3110,1,Player object (801),sell,2023-03-09 00:56:16.265142+00:00,"{""priceA"": 120, ""sharesA"": 0, ""secs_since_round_starts"": 35, ""market"": ""A""}",170.0,6.0,5.0,1f2rfly4,vmu7c279,FULL STUDY,190.0
245,3111,1,Player object (801),buy,2023-03-09 00:56:16.788676+00:00,"{""priceA"": 120, ""sharesA"": 1, ""secs_since_round_starts"": 35, ""market"": ""A""}",50.0,6.0,5.0,1f2rfly4,vmu7c279,FULL STUDY,190.0
246,3112,1,Player object (801),sell,2023-03-09 00:56:19.541674+00:00,"{""priceA"": 135, ""sharesA"": 0, ""secs_since_round_starts"": 38, ""market"": ""A""}",185.0,7.0,6.0,1f2rfly4,vmu7c279,FULL STUDY,190.0
247,3113,1,Player object (801),buy,2023-03-09 00:56:20.183091+00:00,"{""priceA"": 135, ""sharesA"": 1, ""secs_since_round_starts"": 39, ""market"": ""A""}",50.0,7.0,6.0,1f2rfly4,vmu7c279,FULL STUDY,190.0
248,3114,1,Player object (801),sell,2023-03-09 00:56:25.475392+00:00,"{""priceA"": 140, ""sharesA"": 0, ""secs_since_round_starts"": 44, ""market"": ""A""}",190.0,8.0,7.0,1f2rfly4,vmu7c279,FULL STUDY,190.0
249,3115,1,Player object (801),buy,2023-03-09 00:56:26.934637+00:00,"{""priceA"": 140, ""sharesA"": 1, ""secs_since_round_starts"": 46, ""market"": ""A""}",50.0,8.0,7.0,1f2rfly4,vmu7c279,FULL STUDY,190.0
250,3116,1,Player object (801),sell,2023-03-09 00:56:27.702161+00:00,"{""priceA"": 140, ""sharesA"": 0, ""secs_since_round_starts"": 46, ""market"": ""A""}",190.0,8.0,7.0,1f2rfly4,vmu7c279,FULL STUDY,190.0
251,3117,1,Player object (801),GAME_ENDS,2023-03-09 00:56:35.491257+00:00,"{""priceA"": 130, ""sharesA"": 0, ""secs_since_round_starts"": 54}",190.0,10.0,7.0,1f2rfly4,vmu7c279,FULL STUDY,190.0
252,3170,1,Player object (803),GAME_STARTS,2023-03-09 01:15:38.406260+00:00,"{""priceA"": 100, ""sharesA"": 1, ""secs_since_round_starts"": 0}",50.0,,,gy1a20qq,vmu7c279,FULL STUDY,175.0
253,3171,1,Player object (803),sell,2023-03-09 01:15:55.781261+00:00,"{""priceA"": 120, ""sharesA"": 0, ""secs_since_round_starts"": 17, ""market"": ""A""}",170.0,3.0,1.0,gy1a20qq,vmu7c279,FULL STUDY,175.0
254,3172,1,Player object (803),buy,2023-03-09 01:16:01.608272+00:00,"{""priceA"": 115, ""sharesA"": 1, ""secs_since_round_starts"": 23, ""market"": ""A""}",55.0,4.0,2.0,gy1a20qq,vmu7c279,FULL STUDY,175.0
255,3175,1,Player object (803),sell,2023-03-09 01:16:13.142683+00:00,"{""priceA"": 120, ""sharesA"": 0, ""secs_since_round_starts"": 34, ""market"": ""A""}",175.0,6.0,3.0,gy1a20qq,vmu7c279,FULL STUDY,175.0
256,3177,1,Player object (803),GAME_ENDS,2023-03-09 01:16:32.947884+00:00,"{""priceA"": 130, ""sharesA"": 0, ""secs_since_round_starts"": 54}",175.0,10.0,3.0,gy1a20qq,vmu7c279,FULL STUDY,175.0
257,3271,1,Player object (809),GAME_STARTS,2023-03-09 03:27:49.804780+00:00,"{""priceA"": 100, ""sharesA"": 1, ""secs_since_round_starts"": 0}",50.0,,,px6py4fl,vmu7c279,FULL STUDY,170.0
258,3272,1,Player object (809),sell,2023-03-09 03:28:25.446481+00:00,"{""priceA"": 120, ""sharesA"": 0, ""secs_since_round_starts"": 35, ""market"": ""A""}",170.0,6.0,1.0,px6py4fl,vmu7c279,FULL STUDY,170.0
259,3301,1,Player object (810),GAME_STARTS,2023-03-09 03:39:47.133328+00:00,"{""priceA"": 100, ""sharesA"": 1, ""secs_since_round_starts"": 0}",50.0,,,leux5m59,vmu7c279,FULL STUDY,210.0
260,3302,1,Player object (810),sell,2023-03-09 03:40:00.091343+00:00,"{""priceA"": 120, ""sharesA"": 0, ""secs_since_round_starts"": 12, ""market"": ""A""}",170.0,2.0,1.0,leux5m59,vmu7c279,FULL STUDY,210.0
261,3303,1,Player object (810),buy,2023-03-09 03:40:03.053069+00:00,"{""priceA"": 120, ""sharesA"": 1, ""secs_since_round_starts"": 15, ""market"": ""A""}",50.0,2.0,1.0,leux5m59,vmu7c279,FULL STUDY,210.0
262,3304,1,Player object (810),sell,2023-03-09 03:40:09.697603+00:00,"{""priceA"": 135, ""sharesA"": 0, ""secs_since_round_starts"": 22, ""market"": ""A""}",185.0,4.0,2.0,leux5m59,vmu7c279,FULL STUDY,210.0
263,3305,1,Player object (810),buy,2023-03-09 03:40:25.003549+00:00,"{""priceA"": 125, ""sharesA"": 1, ""secs_since_round_starts"": 37, ""market"": ""A""}",60.0,6.0,3.0,leux5m59,vmu7c279,FULL STUDY,210.0
264,3306,1,Player object (810),sell,2023-03-09 03:40:32.236655+00:00,"{""priceA"": 150, ""sharesA"": 0, ""secs_since_round_starts"": 45, ""market"": ""A""}",210.0,8.0,4.0,leux5m59,vmu7c279,FULL STUDY,210.0
265,3307,1,Player object (810),GAME_ENDS,2023-03-09 03:40:41.693482+00:00,"{""priceA"": 140, ""sharesA"": 0, ""secs_since_round_starts"": 54}",210.0,10.0,4.0,leux5m59,vmu7c279,FULL STUDY,210.0
266,3403,1,Player object (811),GAME_STARTS,2023-03-09 04:05:43.189695+00:00,"{""priceA"": 100, ""sharesA"": 1, ""secs_since_round_starts"": 0}",50.0,,,5gtepg45,vmu7c279,FULL STUDY,150.0
267,3404,1,Player object (811),sell,2023-03-09 04:05:47.892269+00:00,"{""priceA"": 100, ""sharesA"": 0, ""secs_since_round_starts"": 4, ""market"": ""A""}",150.0,,1.0,5gtepg45,vmu7c279,FULL STUDY,150.0
268,3411,1,Player object (812),GAME_STARTS,2023-03-09 04:09:27.685089+00:00,"{""priceA"": 100, ""sharesA"": 1, ""secs_since_round_starts"": 0}",50.0,,,rishpgae,vmu7c279,FULL STUDY,185.0
269,3414,1,Player object (812),sell,2023-03-09 04:10:07.520868+00:00,"{""priceA"": 135, ""sharesA"": 0, ""secs_since_round_starts"": 39, ""market"": ""A""}",185.0,7.0,1.0,rishpgae,vmu7c279,FULL STUDY,185.0
270,3569,1,Player object (814),GAME_STARTS,2023-03-09 04:58:20.849637+00:00,"{""priceA"": 100, ""sharesA"": 1, ""secs_since_round_starts"": 0}",50.0,,,vrwqe4da,vmu7c279,FULL STUDY,170.0
271,3570,1,Player object (814),sell,2023-03-09 04:58:56.269505+00:00,"{""priceA"": 120, ""sharesA"": 0, ""secs_since_round_starts"": 35, ""market"": ""A""}",170.0,6.0,1.0,vrwqe4da,vmu7c279,FULL STUDY,170.0
272,3571,1,Player object (814),buy,2023-03-09 04:59:11.956579+00:00,"{""priceA"": 130, ""sharesA"": 1, ""secs_since_round_starts"": 51, ""market"": ""A""}",40.0,9.0,2.0,vrwqe4da,vmu7c279,FULL STUDY,170.0
273,3584,1,Player object (815),GAME_STARTS,2023-03-09 05:07:35.483028+00:00,"{""priceA"": 100, ""sharesA"": 1, ""secs_since_round_starts"": 0}",50.0,,,bgjp13q8,vmu7c279,FULL STUDY,170.0
274,3586,1,Player object (815),sell,2023-03-09 05:08:11.108256+00:00,"{""priceA"": 120, ""sharesA"": 0, ""secs_since_round_starts"": 35, ""market"": ""A""}",170.0,6.0,1.0,bgjp13q8,vmu7c279,FULL STUDY,170.0
275,3587,1,Player object (815),GAME_ENDS,2023-03-09 05:08:30.064992+00:00,"{""priceA"": 130, ""sharesA"": 0, ""secs_since_round_starts"": 54}",170.0,10.0,1.0,bgjp13q8,vmu7c279,FULL STUDY,170.0
276,3642,1,Player object (816),GAME_STARTS,2023-03-09 05:31:07.945898+00:00,"{""priceA"": 100, ""sharesA"": 1, ""secs_since_round_starts"": 0}",50.0,,,g4ux0ytr,vmu7c279,FULL STUDY,190.0
277,3643,1,Player object (816),sell,2023-03-09 05:31:25.099339+00:00,"{""priceA"": 125, ""sharesA"": 0, ""secs_since_round_starts"": 17, ""market"": ""A""}",175.0,3.0,1.0,g4ux0ytr,vmu7c279,FULL STUDY,190.0
278,3645,1,Player object (816),buy,2023-03-09 05:31:44.779797+00:00,"{""priceA"": 125, ""sharesA"": 1, ""secs_since_round_starts"": 36, ""market"": ""A""}",50.0,6.0,2.0,g4ux0ytr,vmu7c279,FULL STUDY,190.0
279,3647,1,Player object (816),sell,2023-03-09 05:31:50.540867+00:00,"{""priceA"": 140, ""sharesA"": 0, ""secs_since_round_starts"": 42, ""market"": ""A""}",190.0,7.0,3.0,g4ux0ytr,vmu7c279,FULL STUDY,190.0
280,3713,1,Player object (818),GAME_STARTS,2023-03-09 18:05:28.362498+00:00,"{""priceA"": 100, ""sharesA"": 1, ""secs_since_round_starts"": 0}",50.0,,,1c9lzru0,vmu7c279,FULL STUDY,185.0
281,3714,1,Player object (818),sell,2023-03-09 18:05:41.995458+00:00,"{""priceA"": 115, ""sharesA"": 0, ""secs_since_round_starts"": 13, ""market"": ""A""}",165.0,2.0,1.0,1c9lzru0,vmu7c279,FULL STUDY,185.0
282,3715,1,Player object (818),buy,2023-03-09 18:06:03.486365+00:00,"{""priceA"": 120, ""sharesA"": 1, ""secs_since_round_starts"": 35, ""market"": ""A""}",45.0,6.0,2.0,1c9lzru0,vmu7c279,FULL STUDY,185.0
283,3716,1,Player object (818),sell,2023-03-09 18:06:13.095665+00:00,"{""priceA"": 140, ""sharesA"": 0, ""secs_since_round_starts"": 44, ""market"": ""A""}",185.0,8.0,3.0,1c9lzru0,vmu7c279,FULL STUDY,185.0
284,3744,1,Player object (779),GAME_STARTS,2023-03-09 18:12:16.124532+00:00,"{""priceA"": 100, ""sharesA"": 1, ""secs_since_round_starts"": 0}",50.0,,,fizyhuoi,vmu7c279,FULL STUDY,165.0
285,3747,1,Player object (779),sell,2023-03-09 18:12:39.105058+00:00,"{""priceA"": 115, ""sharesA"": 0, ""secs_since_round_starts"": 23, ""market"": ""A""}",165.0,4.0,1.0,fizyhuoi,vmu7c279,FULL STUDY,165.0
286,3750,1,Player object (779),GAME_ENDS,2023-03-09 18:13:10.442716+00:00,"{""priceA"": 130, ""sharesA"": 0, ""secs_since_round_starts"": 54}",165.0,10.0,1.0,fizyhuoi,vmu7c279,FULL STUDY,165.0
287,3899,1,Player object (819),GAME_STARTS,2023-03-09 19:55:17.895680+00:00,"{""priceA"": 100, ""sharesA"": 1, ""secs_since_round_starts"": 0}",50.0,,,qzgbjdzz,vmu7c279,FULL STUDY,180.0
288,3900,1,Player object (819),sell,2023-03-09 19:55:42.274586+00:00,"{""priceA"": 115, ""sharesA"": 0, ""secs_since_round_starts"": 24, ""market"": ""A""}",165.0,4.0,1.0,qzgbjdzz,vmu7c279,FULL STUDY,180.0
289,3901,1,Player object (819),buy,2023-03-09 19:55:46.684280+00:00,"{""priceA"": 105, ""sharesA"": 1, ""secs_since_round_starts"": 29, ""market"": ""A""}",60.0,5.0,2.0,qzgbjdzz,vmu7c279,FULL STUDY,180.0
290,3902,1,Player object (819),sell,2023-03-09 19:55:51.671682+00:00,"{""priceA"": 120, ""sharesA"": 0, ""secs_since_round_starts"": 34, ""market"": ""A""}",180.0,6.0,3.0,qzgbjdzz,vmu7c279,FULL STUDY,180.0
291,3903,1,Player object (819),buy,2023-03-09 19:56:10.793613+00:00,"{""priceA"": 130, ""sharesA"": 1, ""secs_since_round_starts"": 53, ""market"": ""A""}",50.0,9.0,4.0,qzgbjdzz,vmu7c279,FULL STUDY,180.0
292,3904,1,Player object (819),GAME_ENDS,2023-03-09 19:56:12.457408+00:00,"{""priceA"": 130, ""sharesA"": 1, ""secs_since_round_starts"": 54}",50.0,10.0,4.0,qzgbjdzz,vmu7c279,FULL STUDY,180.0
293,3907,1,Player object (820),GAME_STARTS,2023-03-09 19:57:23.588231+00:00,"{""priceA"": 100, ""sharesA"": 1, ""secs_since_round_starts"": 0}",50.0,,,lw8audd5,vmu7c279,FULL STUDY,175.0
294,3908,1,Player object (820),sell,2023-03-09 19:57:32.766859+00:00,"{""priceA"": 110, ""sharesA"": 0, ""secs_since_round_starts"": 9, ""market"": ""A""}",160.0,1.0,1.0,lw8audd5,vmu7c279,FULL STUDY,175.0
295,3910,1,Player object (820),buy,2023-03-09 19:57:53.114414+00:00,"{""priceA"": 105, ""sharesA"": 1, ""secs_since_round_starts"": 29, ""market"": ""A""}",55.0,5.0,2.0,lw8audd5,vmu7c279,FULL STUDY,175.0
296,3912,1,Player object (820),sell,2023-03-09 19:57:57.740372+00:00,"{""priceA"": 120, ""sharesA"": 0, ""secs_since_round_starts"": 34, ""market"": ""A""}",175.0,6.0,3.0,lw8audd5,vmu7c279,FULL STUDY,175.0
297,4029,1,Player object (822),GAME_STARTS,2023-03-09 20:19:32.578538+00:00,"{""priceA"": 100, ""sharesA"": 1, ""secs_since_round_starts"": 0}",50.0,,,v3ju8jv9,vmu7c279,FULL STUDY,170.0
298,4032,1,Player object (822),sell,2023-03-09 20:19:53.008378+00:00,"{""priceA"": 125, ""sharesA"": 0, ""secs_since_round_starts"": 20, ""market"": ""A""}",175.0,3.0,1.0,v3ju8jv9,vmu7c279,FULL STUDY,170.0
299,4033,1,Player object (822),buy,2023-03-09 20:19:55.277981+00:00,"{""priceA"": 135, ""sharesA"": 1, ""secs_since_round_starts"": 22, ""market"": ""A""}",40.0,4.0,2.0,v3ju8jv9,vmu7c279,FULL STUDY,170.0
300,4034,1,Player object (822),sell,2023-03-09 20:20:02.609584+00:00,"{""priceA"": 130, ""sharesA"": 0, ""secs_since_round_starts"": 30, ""market"": ""A""}",170.0,5.0,3.0,v3ju8jv9,vmu7c279,FULL STUDY,170.0
301,4201,1,Player object (823),GAME_STARTS,2023-03-09 21:47:32.714321+00:00,"{""priceA"": 100, ""sharesA"": 1, ""secs_since_round_starts"": 0}",50.0,,,i6yb4yej,vmu7c279,FULL STUDY,170.0
302,4202,1,Player object (823),sell,2023-03-09 21:48:08.244266+00:00,"{""priceA"": 120, ""sharesA"": 0, ""secs_since_round_starts"": 35, ""market"": ""A""}",170.0,6.0,1.0,i6yb4yej,vmu7c279,FULL STUDY,170.0
303,4203,1,Player object (823),GAME_ENDS,2023-03-09 21:48:27.301410+00:00,"{""priceA"": 130, ""sharesA"": 0, ""secs_since_round_starts"": 54}",170.0,10.0,1.0,i6yb4yej,vmu7c279,FULL STUDY,170.0
304,4285,1,Player object (827),GAME_STARTS,2023-03-09 22:41:37.567427+00:00,"{""priceA"": 100, ""sharesA"": 1, ""secs_since_round_starts"": 0}",50.0,,,aqvtf4p9,vmu7c279,FULL STUDY,170.0
305,4286,1,Player object (826),GAME_STARTS,2023-03-09 22:41:51.144537+00:00,"{""priceA"": 100, ""sharesA"": 1, ""secs_since_round_starts"": 0}",50.0,,,wpwzt9j0,vmu7c279,FULL STUDY,165.0
306,4287,1,Player object (826),sell,2023-03-09 22:41:55.784769+00:00,"{""priceA"": 100, ""sharesA"": 0, ""secs_since_round_starts"": 4, ""market"": ""A""}",150.0,,1.0,wpwzt9j0,vmu7c279,FULL STUDY,165.0
307,4288,1,Player object (826),buy,2023-03-09 22:41:59.377646+00:00,"{""priceA"": 110, ""sharesA"": 1, ""secs_since_round_starts"": 8, ""market"": ""A""}",40.0,1.0,2.0,wpwzt9j0,vmu7c279,FULL STUDY,165.0
308,4289,1,Player object (827),sell,2023-03-09 22:42:12.174188+00:00,"{""priceA"": 120, ""sharesA"": 0, ""secs_since_round_starts"": 34, ""market"": ""A""}",170.0,6.0,1.0,aqvtf4p9,vmu7c279,FULL STUDY,170.0
309,4290,1,Player object (826),sell,2023-03-09 22:42:14.474967+00:00,"{""priceA"": 115, ""sharesA"": 0, ""secs_since_round_starts"": 23, ""market"": ""A""}",155.0,4.0,3.0,wpwzt9j0,vmu7c279,FULL STUDY,165.0
310,4291,1,Player object (826),buy,2023-03-09 22:42:25.399945+00:00,"{""priceA"": 120, ""sharesA"": 1, ""secs_since_round_starts"": 34, ""market"": ""A""}",35.0,6.0,4.0,wpwzt9j0,vmu7c279,FULL STUDY,165.0
311,4292,1,Player object (827),GAME_ENDS,2023-03-09 22:42:32.164270+00:00,"{""priceA"": 130, ""sharesA"": 0, ""secs_since_round_starts"": 54}",170.0,10.0,1.0,aqvtf4p9,vmu7c279,FULL STUDY,170.0
312,4294,1,Player object (826),sell,2023-03-09 22:42:41.402498+00:00,"{""priceA"": 130, ""sharesA"": 0, ""secs_since_round_starts"": 50, ""market"": ""A""}",165.0,9.0,5.0,wpwzt9j0,vmu7c279,FULL STUDY,165.0
313,4465,1,Player object (829),GAME_STARTS,2023-03-09 23:16:53.450386+00:00,"{""priceA"": 100, ""sharesA"": 1, ""secs_since_round_starts"": 0}",50.0,,,5kbeb2zm,vmu7c279,FULL STUDY,185.0
314,4466,1,Player object (829),sell,2023-03-09 23:17:34.750828+00:00,"{""priceA"": 135, ""sharesA"": 0, ""secs_since_round_starts"": 41, ""market"": ""A""}",185.0,7.0,1.0,5kbeb2zm,vmu7c279,FULL STUDY,185.0
315,4467,1,Player object (829),GAME_ENDS,2023-03-09 23:17:48.055131+00:00,"{""priceA"": 130, ""sharesA"": 0, ""secs_since_round_starts"": 54}",185.0,10.0,1.0,5kbeb2zm,vmu7c279,FULL STUDY,185.0
316,4500,1,Player object (833),GAME_STARTS,2023-03-10 01:05:11.860945+00:00,"{""priceA"": 100, ""sharesA"": 1, ""secs_since_round_starts"": 0}",50.0,,,vjy9du3z,vmu7c279,FULL STUDY,170.0
317,4501,1,Player object (833),sell,2023-03-10 01:05:22.281697+00:00,"{""priceA"": 110, ""sharesA"": 0, ""secs_since_round_starts"": 10, ""market"": ""A""}",160.0,1.0,1.0,vjy9du3z,vmu7c279,FULL STUDY,170.0
318,4502,1,Player object (833),buy,2023-03-10 01:05:34.551251+00:00,"{""priceA"": 115, ""sharesA"": 1, ""secs_since_round_starts"": 22, ""market"": ""A""}",45.0,4.0,2.0,vjy9du3z,vmu7c279,FULL STUDY,170.0
319,4503,1,Player object (833),sell,2023-03-10 01:05:48.514887+00:00,"{""priceA"": 120, ""sharesA"": 0, ""secs_since_round_starts"": 36, ""market"": ""A""}",165.0,6.0,3.0,vjy9du3z,vmu7c279,FULL STUDY,170.0
320,4504,1,Player object (833),buy,2023-03-10 01:05:51.191316+00:00,"{""priceA"": 135, ""sharesA"": 1, ""secs_since_round_starts"": 39, ""market"": ""A""}",30.0,7.0,4.0,vjy9du3z,vmu7c279,FULL STUDY,170.0
321,4505,1,Player object (833),sell,2023-03-10 01:05:58.687142+00:00,"{""priceA"": 140, ""sharesA"": 0, ""secs_since_round_starts"": 46, ""market"": ""A""}",170.0,8.0,5.0,vjy9du3z,vmu7c279,FULL STUDY,170.0
322,4506,1,Player object (833),buy,2023-03-10 01:06:01.756761+00:00,"{""priceA"": 130, ""sharesA"": 1, ""secs_since_round_starts"": 49, ""market"": ""A""}",40.0,9.0,6.0,vjy9du3z,vmu7c279,FULL STUDY,170.0
323,4507,1,Player object (833),GAME_ENDS,2023-03-10 01:06:06.383877+00:00,"{""priceA"": 130, ""sharesA"": 1, ""secs_since_round_starts"": 54}",40.0,10.0,6.0,vjy9du3z,vmu7c279,FULL STUDY,170.0
324,4585,1,Player object (834),GAME_STARTS,2023-03-10 02:17:42.921886+00:00,"{""priceA"": 100, ""sharesA"": 1, ""secs_since_round_starts"": 0}",50.0,,,b8u4u74w,vmu7c279,FULL STUDY,180.0
325,4586,1,Player object (834),sell,2023-03-10 02:18:10.939978+00:00,"{""priceA"": 130, ""sharesA"": 0, ""secs_since_round_starts"": 28, ""market"": ""A""}",180.0,5.0,1.0,b8u4u74w,vmu7c279,FULL STUDY,180.0
326,4620,1,Player object (835),GAME_STARTS,2023-03-10 02:38:18.974916+00:00,"{""priceA"": 100, ""sharesA"": 1, ""secs_since_round_starts"": 0}",50.0,,,bsjfe8ds,vmu7c279,FULL STUDY,195.0
327,4622,1,Player object (835),sell,2023-03-10 02:38:31.675709+00:00,"{""priceA"": 115, ""sharesA"": 0, ""secs_since_round_starts"": 12, ""market"": ""A""}",165.0,2.0,1.0,bsjfe8ds,vmu7c279,FULL STUDY,195.0
328,4623,1,Player object (835),buy,2023-03-10 02:38:48.694321+00:00,"{""priceA"": 105, ""sharesA"": 1, ""secs_since_round_starts"": 29, ""market"": ""A""}",60.0,5.0,2.0,bsjfe8ds,vmu7c279,FULL STUDY,195.0
329,4625,1,Player object (835),sell,2023-03-10 02:39:01.763964+00:00,"{""priceA"": 135, ""sharesA"": 0, ""secs_since_round_starts"": 42, ""market"": ""A""}",195.0,7.0,3.0,bsjfe8ds,vmu7c279,FULL STUDY,195.0
330,4626,1,Player object (835),GAME_ENDS,2023-03-10 02:39:13.954349+00:00,"{""priceA"": 130, ""sharesA"": 0, ""secs_since_round_starts"": 54}",195.0,10.0,3.0,bsjfe8ds,vmu7c279,FULL STUDY,195.0
331,4742,1,Player object (840),GAME_STARTS,2023-03-10 03:53:26.584857+00:00,"{""priceA"": 100, ""sharesA"": 1, ""secs_since_round_starts"": 0}",50.0,,,sxogauy0,vmu7c279,FULL STUDY,180.0
332,4743,1,Player object (840),sell,2023-03-10 03:53:55.079983+00:00,"{""priceA"": 130, ""sharesA"": 0, ""secs_since_round_starts"": 28, ""market"": ""A""}",180.0,5.0,1.0,sxogauy0,vmu7c279,FULL STUDY,180.0
333,4744,1,Player object (840),GAME_ENDS,2023-03-10 03:54:21.146884+00:00,"{""priceA"": 140, ""sharesA"": 0, ""secs_since_round_starts"": 54}",180.0,10.0,1.0,sxogauy0,vmu7c279,FULL STUDY,180.0
334,4924,1,Player object (831),GAME_STARTS,2023-03-10 10:36:46.331344+00:00,"{""priceA"": 100, ""sharesA"": 1, ""secs_since_round_starts"": 0}",50.0,,,2f9gqu83,vmu7c279,FULL STUDY,165.0
335,4925,1,Player object (831),sell,2023-03-10 10:37:02.095244+00:00,"{""priceA"": 115, ""sharesA"": 0, ""secs_since_round_starts"": 15, ""market"": ""A""}",165.0,2.0,1.0,2f9gqu83,vmu7c279,FULL STUDY,165.0
336,4926,1,Player object (831),GAME_ENDS,2023-03-10 10:37:40.787597+00:00,"{""priceA"": 130, ""sharesA"": 0, ""secs_since_round_starts"": 54}",165.0,10.0,1.0,2f9gqu83,vmu7c279,FULL STUDY,165.0
337,4989,1,Player object (836),GAME_STARTS,2023-03-10 11:33:34.516361+00:00,"{""priceA"": 100, ""sharesA"": 1, ""secs_since_round_starts"": 0}",50.0,,,5wgi88t6,vmu7c279,FULL STUDY,185.0
338,4990,1,Player object (836),sell,2023-03-10 11:34:14.708408+00:00,"{""priceA"": 135, ""sharesA"": 0, ""secs_since_round_starts"": 40, ""market"": ""A""}",185.0,7.0,1.0,5wgi88t6,vmu7c279,FULL STUDY,185.0
339,151,2,Player object (843),GAME_STARTS,2023-02-22 21:52:14.109371+00:00,"{""priceA"": 100, ""sharesA"": 1, ""secs_since_round_starts"": 0}",50.0,,,mi0088eg,vmu7c279,FULL STUDY,170.0
340,152,2,Player object (843),PREDICTIONS_SENT,2023-02-22 21:53:16.880293+00:00,"{""priceA"": 100, ""sharesA"": 1, ""secs_since_round_starts"": 62, ""action"": ""predictions_send"", ""stockUpA"": 3, ""confidenceA"": 4}",50.0,,,mi0088eg,vmu7c279,FULL STUDY,170.0
341,153,2,Player object (843),sell,2023-02-22 21:53:50.059243+00:00,"{""priceA"": 100, ""sharesA"": 0, ""secs_since_round_starts"": 96, ""market"": ""A""}",150.0,6.0,1.0,mi0088eg,vmu7c279,FULL STUDY,170.0
342,154,2,Player object (843),buy,2023-02-22 21:54:01.721694+00:00,"{""priceA"": 70, ""sharesA"": 1, ""secs_since_round_starts"": 107, ""market"": ""A""}",80.0,8.0,2.0,mi0088eg,vmu7c279,FULL STUDY,170.0
343,155,2,Player object (843),sell,2023-02-22 21:54:30.794129+00:00,"{""priceA"": 120, ""sharesA"": 0, ""secs_since_round_starts"": 136, ""market"": ""A""}",200.0,14.0,3.0,mi0088eg,vmu7c279,FULL STUDY,170.0
344,156,2,Player object (843),buy,2023-02-22 21:55:31.363220+00:00,"{""priceA"": 140, ""sharesA"": 1, ""secs_since_round_starts"": 197, ""market"": ""A""}",60.0,25.0,4.0,mi0088eg,vmu7c279,FULL STUDY,170.0
345,157,2,Player object (843),PREDICTIONS_SENT,2023-02-22 21:56:06.062863+00:00,"{""priceA"": 130, ""sharesA"": 1, ""secs_since_round_starts"": 232, ""action"": ""predictions_send"", ""stockUpA"": 4, ""confidenceA"": 3}",60.0,30.0,4.0,mi0088eg,vmu7c279,FULL STUDY,170.0
346,158,2,Player object (843),sell,2023-02-22 21:56:20.037311+00:00,"{""priceA"": 125, ""sharesA"": 0, ""secs_since_round_starts"": 246, ""market"": ""A""}",185.0,33.0,5.0,mi0088eg,vmu7c279,FULL STUDY,170.0
347,159,2,Player object (843),buy,2023-02-22 21:57:51.252544+00:00,"{""priceA"": 140, ""sharesA"": 1, ""secs_since_round_starts"": 337, ""market"": ""A""}",45.0,50.0,6.0,mi0088eg,vmu7c279,FULL STUDY,170.0
348,160,2,Player object (843),GAME_ENDS,2023-02-22 21:58:45.536775+00:00,"{""priceA"": 125, ""sharesA"": 1, ""secs_since_round_starts"": 391}",45.0,60.0,6.0,mi0088eg,vmu7c279,FULL STUDY,170.0
349,206,2,Player object (850),GAME_STARTS,2023-02-25 00:10:42.973184+00:00,"{""priceA"": 100, ""sharesA"": 1, ""secs_since_round_starts"": 0}",50.0,,,7jonfg2l,vmu7c279,FULL STUDY,245.0
350,207,2,Player object (850),PREDICTIONS_SENT,2023-02-25 00:11:45.140140+00:00,"{""priceA"": 100, ""sharesA"": 1, ""secs_since_round_starts"": 62, ""action"": ""predictions_send"", ""stockUpA"": 3, ""confidenceA"": 4}",50.0,,,7jonfg2l,vmu7c279,FULL STUDY,245.0
351,208,2,Player object (850),sell,2023-02-25 00:12:05.781705+00:00,"{""priceA"": 110, ""sharesA"": 0, ""secs_since_round_starts"": 82, ""market"": ""A""}",160.0,5.0,1.0,7jonfg2l,vmu7c279,FULL STUDY,245.0
352,209,2,Player object (850),buy,2023-02-25 00:12:26.488633+00:00,"{""priceA"": 75, ""sharesA"": 1, ""secs_since_round_starts"": 103, ""market"": ""A""}",85.0,9.0,2.0,7jonfg2l,vmu7c279,FULL STUDY,245.0
353,210,2,Player object (850),sell,2023-02-25 00:12:59.918207+00:00,"{""priceA"": 105, ""sharesA"": 0, ""secs_since_round_starts"": 137, ""market"": ""A""}",190.0,15.0,3.0,7jonfg2l,vmu7c279,FULL STUDY,245.0
354,211,2,Player object (850),buy,2023-02-25 00:13:06.644657+00:00,"{""priceA"": 110, ""sharesA"": 1, ""secs_since_round_starts"": 143, ""market"": ""A""}",80.0,16.0,4.0,7jonfg2l,vmu7c279,FULL STUDY,245.0
355,212,2,Player object (850),sell,2023-02-25 00:13:22.224391+00:00,"{""priceA"": 125, ""sharesA"": 0, ""secs_since_round_starts"": 159, ""market"": ""A""}",205.0,19.0,5.0,7jonfg2l,vmu7c279,FULL STUDY,245.0
356,213,2,Player object (850),buy,2023-02-25 00:13:30.126377+00:00,"{""priceA"": 130, ""sharesA"": 1, ""secs_since_round_starts"": 167, ""market"": ""A""}",75.0,20.0,6.0,7jonfg2l,vmu7c279,FULL STUDY,245.0
357,214,2,Player object (850),sell,2023-02-25 00:13:49.802100+00:00,"{""priceA"": 145, ""sharesA"": 0, ""secs_since_round_starts"": 186, ""market"": ""A""}",220.0,24.0,7.0,7jonfg2l,vmu7c279,FULL STUDY,245.0
358,215,2,Player object (850),buy,2023-02-25 00:14:16.988789+00:00,"{""priceA"": 125, ""sharesA"": 1, ""secs_since_round_starts"": 214, ""market"": ""A""}",95.0,29.0,8.0,7jonfg2l,vmu7c279,FULL STUDY,245.0
359,216,2,Player object (850),PREDICTIONS_SENT,2023-02-25 00:14:30.225100+00:00,"{""priceA"": 130, ""sharesA"": 1, ""secs_since_round_starts"": 226, ""action"": ""predictions_send"", ""stockUpA"": 4, ""confidenceA"": 4}",95.0,30.0,8.0,7jonfg2l,vmu7c279,FULL STUDY,245.0
360,217,2,Player object (850),sell,2023-02-25 00:14:36.514185+00:00,"{""priceA"": 130, ""sharesA"": 0, ""secs_since_round_starts"": 233, ""market"": ""A""}",225.0,32.0,9.0,7jonfg2l,vmu7c279,FULL STUDY,245.0
361,218,2,Player object (850),buy,2023-02-25 00:14:46.882798+00:00,"{""priceA"": 140, ""sharesA"": 1, ""secs_since_round_starts"": 244, ""market"": ""A""}",85.0,34.0,10.0,7jonfg2l,vmu7c279,FULL STUDY,245.0
362,219,2,Player object (850),sell,2023-02-25 00:14:57.930554+00:00,"{""priceA"": 145, ""sharesA"": 0, ""secs_since_round_starts"": 255, ""market"": ""A""}",230.0,36.0,11.0,7jonfg2l,vmu7c279,FULL STUDY,245.0
363,220,2,Player object (850),buy,2023-02-25 00:15:14.380330+00:00,"{""priceA"": 140, ""sharesA"": 1, ""secs_since_round_starts"": 271, ""market"": ""A""}",90.0,39.0,12.0,7jonfg2l,vmu7c279,FULL STUDY,245.0
364,221,2,Player object (850),sell,2023-02-25 00:15:21.101892+00:00,"{""priceA"": 135, ""sharesA"": 0, ""secs_since_round_starts"": 277, ""market"": ""A""}",225.0,40.0,13.0,7jonfg2l,vmu7c279,FULL STUDY,245.0
365,222,2,Player object (850),buy,2023-02-25 00:15:36.498062+00:00,"{""priceA"": 130, ""sharesA"": 1, ""secs_since_round_starts"": 293, ""market"": ""A""}",95.0,43.0,14.0,7jonfg2l,vmu7c279,FULL STUDY,245.0
366,223,2,Player object (850),sell,2023-02-25 00:15:52.797215+00:00,"{""priceA"": 140, ""sharesA"": 0, ""secs_since_round_starts"": 309, ""market"": ""A""}",235.0,46.0,15.0,7jonfg2l,vmu7c279,FULL STUDY,245.0
367,224,2,Player object (850),buy,2023-02-25 00:15:59.628878+00:00,"{""priceA"": 155, ""sharesA"": 1, ""secs_since_round_starts"": 316, ""market"": ""A""}",80.0,47.0,16.0,7jonfg2l,vmu7c279,FULL STUDY,245.0
368,225,2,Player object (850),sell,2023-02-25 00:16:09.430531+00:00,"{""priceA"": 155, ""sharesA"": 0, ""secs_since_round_starts"": 326, ""market"": ""A""}",235.0,49.0,17.0,7jonfg2l,vmu7c279,FULL STUDY,245.0
369,226,2,Player object (850),buy,2023-02-25 00:16:27.311556+00:00,"{""priceA"": 135, ""sharesA"": 1, ""secs_since_round_starts"": 344, ""market"": ""A""}",100.0,52.0,18.0,7jonfg2l,vmu7c279,FULL STUDY,245.0
370,227,2,Player object (850),sell,2023-02-25 00:16:38.104686+00:00,"{""priceA"": 135, ""sharesA"": 0, ""secs_since_round_starts"": 355, ""market"": ""A""}",235.0,54.0,19.0,7jonfg2l,vmu7c279,FULL STUDY,245.0
371,228,2,Player object (850),buy,2023-02-25 00:16:54.057658+00:00,"{""priceA"": 115, ""sharesA"": 1, ""secs_since_round_starts"": 371, ""market"": ""A""}",120.0,57.0,20.0,7jonfg2l,vmu7c279,FULL STUDY,245.0
372,229,2,Player object (850),GAME_ENDS,2023-02-25 00:17:09.115857+00:00,"{""priceA"": 125, ""sharesA"": 1, ""secs_since_round_starts"": 386}",120.0,60.0,20.0,7jonfg2l,vmu7c279,FULL STUDY,245.0
373,342,2,Player object (851),GAME_STARTS,2023-02-25 02:29:57.788696+00:00,"{""priceA"": 100, ""sharesA"": 1, ""secs_since_round_starts"": 0}",50.0,,,5c7udvpd,vmu7c279,FULL STUDY,210.0
374,343,2,Player object (851),PREDICTIONS_SENT,2023-02-25 02:30:27.667831+00:00,"{""priceA"": 100, ""sharesA"": 1, ""secs_since_round_starts"": 29, ""action"": ""predictions_send"", ""stockUpA"": 5, ""confidenceA"": 4}",50.0,,,5c7udvpd,vmu7c279,FULL STUDY,210.0
375,344,2,Player object (851),sell,2023-02-25 02:30:54.455377+00:00,"{""priceA"": 100, ""sharesA"": 0, ""secs_since_round_starts"": 56, ""market"": ""A""}",150.0,6.0,1.0,5c7udvpd,vmu7c279,FULL STUDY,210.0
376,345,2,Player object (851),buy,2023-02-25 02:31:10.122366+00:00,"{""priceA"": 75, ""sharesA"": 1, ""secs_since_round_starts"": 72, ""market"": ""A""}",75.0,9.0,2.0,5c7udvpd,vmu7c279,FULL STUDY,210.0
377,346,2,Player object (851),sell,2023-02-25 02:31:49.341445+00:00,"{""priceA"": 110, ""sharesA"": 0, ""secs_since_round_starts"": 111, ""market"": ""A""}",185.0,16.0,3.0,5c7udvpd,vmu7c279,FULL STUDY,210.0
378,347,2,Player object (851),buy,2023-02-25 02:32:55.770732+00:00,"{""priceA"": 115, ""sharesA"": 1, ""secs_since_round_starts"": 178, ""market"": ""A""}",70.0,28.0,4.0,5c7udvpd,vmu7c279,FULL STUDY,210.0
379,348,2,Player object (851),PREDICTIONS_SENT,2023-02-25 02:33:15.826753+00:00,"{""priceA"": 130, ""sharesA"": 1, ""secs_since_round_starts"": 198, ""action"": ""predictions_send"", ""stockUpA"": 4, ""confidenceA"": 3}",70.0,30.0,4.0,5c7udvpd,vmu7c279,FULL STUDY,210.0
380,349,2,Player object (851),sell,2023-02-25 02:34:35.233082+00:00,"{""priceA"": 155, ""sharesA"": 0, ""secs_since_round_starts"": 277, ""market"": ""A""}",225.0,45.0,5.0,5c7udvpd,vmu7c279,FULL STUDY,210.0
381,350,2,Player object (851),buy,2023-02-25 02:35:02.568607+00:00,"{""priceA"": 140, ""sharesA"": 1, ""secs_since_round_starts"": 304, ""market"": ""A""}",85.0,50.0,6.0,5c7udvpd,vmu7c279,FULL STUDY,210.0
382,351,2,Player object (851),GAME_ENDS,2023-02-25 02:35:55.004272+00:00,"{""priceA"": 125, ""sharesA"": 1, ""secs_since_round_starts"": 357}",85.0,60.0,6.0,5c7udvpd,vmu7c279,FULL STUDY,210.0
383,406,2,Player object (854),GAME_STARTS,2023-02-26 00:18:07.209308+00:00,"{""priceA"": 100, ""sharesA"": 1, ""secs_since_round_starts"": 0}",50.0,,,nlp1gb1k,vmu7c279,FULL STUDY,135.0
384,407,2,Player object (854),PREDICTIONS_SENT,2023-02-26 00:18:23.601776+00:00,"{""priceA"": 100, ""sharesA"": 1, ""secs_since_round_starts"": 16, ""action"": ""predictions_send"", ""stockUpA"": 4, ""confidenceA"": 4}",50.0,,,nlp1gb1k,vmu7c279,FULL STUDY,135.0
385,408,2,Player object (854),sell,2023-02-26 00:18:57.040485+00:00,"{""priceA"": 85, ""sharesA"": 0, ""secs_since_round_starts"": 50, ""market"": ""A""}",135.0,7.0,1.0,nlp1gb1k,vmu7c279,FULL STUDY,135.0
386,409,2,Player object (854),buy,2023-02-26 00:19:05.085135+00:00,"{""priceA"": 75, ""sharesA"": 1, ""secs_since_round_starts"": 57, ""market"": ""A""}",60.0,9.0,2.0,nlp1gb1k,vmu7c279,FULL STUDY,135.0
387,410,2,Player object (854),sell,2023-02-26 00:19:38.285182+00:00,"{""priceA"": 105, ""sharesA"": 0, ""secs_since_round_starts"": 91, ""market"": ""A""}",165.0,15.0,3.0,nlp1gb1k,vmu7c279,FULL STUDY,135.0
388,411,2,Player object (854),buy,2023-02-26 00:19:47.588617+00:00,"{""priceA"": 110, ""sharesA"": 1, ""secs_since_round_starts"": 100, ""market"": ""A""}",55.0,16.0,4.0,nlp1gb1k,vmu7c279,FULL STUDY,135.0
389,412,2,Player object (854),sell,2023-02-26 00:20:00.552141+00:00,"{""priceA"": 125, ""sharesA"": 0, ""secs_since_round_starts"": 113, ""market"": ""A""}",180.0,19.0,5.0,nlp1gb1k,vmu7c279,FULL STUDY,135.0
390,413,2,Player object (854),buy,2023-02-26 00:20:22.312206+00:00,"{""priceA"": 160, ""sharesA"": 1, ""secs_since_round_starts"": 135, ""market"": ""A""}",20.0,23.0,6.0,nlp1gb1k,vmu7c279,FULL STUDY,135.0
391,414,2,Player object (854),sell,2023-02-26 00:20:30.928723+00:00,"{""priceA"": 145, ""sharesA"": 0, ""secs_since_round_starts"": 143, ""market"": ""A""}",165.0,24.0,7.0,nlp1gb1k,vmu7c279,FULL STUDY,135.0
392,415,2,Player object (854),buy,2023-02-26 00:20:56.437875+00:00,"{""priceA"": 125, ""sharesA"": 1, ""secs_since_round_starts"": 169, ""market"": ""A""}",40.0,29.0,8.0,nlp1gb1k,vmu7c279,FULL STUDY,135.0
393,416,2,Player object (854),PREDICTIONS_SENT,2023-02-26 00:21:11.727646+00:00,"{""priceA"": 130, ""sharesA"": 1, ""secs_since_round_starts"": 184, ""action"": ""predictions_send"", ""stockUpA"": 5, ""confidenceA"": 4}",40.0,30.0,8.0,nlp1gb1k,vmu7c279,FULL STUDY,135.0
394,417,2,Player object (854),sell,2023-02-26 00:21:23.730080+00:00,"{""priceA"": 125, ""sharesA"": 0, ""secs_since_round_starts"": 196, ""market"": ""A""}",165.0,33.0,9.0,nlp1gb1k,vmu7c279,FULL STUDY,135.0
395,418,2,Player object (854),buy,2023-02-26 00:21:31.278750+00:00,"{""priceA"": 140, ""sharesA"": 1, ""secs_since_round_starts"": 204, ""market"": ""A""}",25.0,34.0,10.0,nlp1gb1k,vmu7c279,FULL STUDY,135.0
396,419,2,Player object (854),sell,2023-02-26 00:21:52.974975+00:00,"{""priceA"": 125, ""sharesA"": 0, ""secs_since_round_starts"": 225, ""market"": ""A""}",150.0,38.0,11.0,nlp1gb1k,vmu7c279,FULL STUDY,135.0
397,420,2,Player object (854),buy,2023-02-26 00:22:10.422668+00:00,"{""priceA"": 130, ""sharesA"": 1, ""secs_since_round_starts"": 243, ""market"": ""A""}",20.0,41.0,12.0,nlp1gb1k,vmu7c279,FULL STUDY,135.0
398,421,2,Player object (854),sell,2023-02-26 00:22:36.710657+00:00,"{""priceA"": 140, ""sharesA"": 0, ""secs_since_round_starts"": 269, ""market"": ""A""}",160.0,46.0,13.0,nlp1gb1k,vmu7c279,FULL STUDY,135.0
399,422,2,Player object (854),buy,2023-02-26 00:22:42.716814+00:00,"{""priceA"": 155, ""sharesA"": 1, ""secs_since_round_starts"": 275, ""market"": ""A""}",5.0,47.0,14.0,nlp1gb1k,vmu7c279,FULL STUDY,135.0
400,423,2,Player object (854),sell,2023-02-26 00:22:57.611245+00:00,"{""priceA"": 140, ""sharesA"": 0, ""secs_since_round_starts"": 290, ""market"": ""A""}",145.0,50.0,15.0,nlp1gb1k,vmu7c279,FULL STUDY,135.0
401,424,2,Player object (854),buy,2023-02-26 00:23:08.116484+00:00,"{""priceA"": 135, ""sharesA"": 1, ""secs_since_round_starts"": 301, ""market"": ""A""}",10.0,52.0,16.0,nlp1gb1k,vmu7c279,FULL STUDY,135.0
402,425,2,Player object (854),GAME_ENDS,2023-02-26 00:23:51.048465+00:00,"{""priceA"": 125, ""sharesA"": 1, ""secs_since_round_starts"": 344}",10.0,60.0,16.0,nlp1gb1k,vmu7c279,FULL STUDY,135.0
403,519,2,Player object (855),GAME_STARTS,2023-02-26 19:11:48.332694+00:00,"{""priceA"": 100, ""sharesA"": 1, ""secs_since_round_starts"": 0}",50.0,,,gcs54w3b,vmu7c279,FULL STUDY,240.0
404,520,2,Player object (855),PREDICTIONS_SENT,2023-02-26 19:11:59.367454+00:00,"{""priceA"": 100, ""sharesA"": 1, ""secs_since_round_starts"": 11, ""action"": ""predictions_send"", ""stockUpA"": 4, ""confidenceA"": 3}",50.0,,,gcs54w3b,vmu7c279,FULL STUDY,240.0
405,521,2,Player object (855),sell,2023-02-26 19:13:24.493429+00:00,"{""priceA"": 125, ""sharesA"": 0, ""secs_since_round_starts"": 96, ""market"": ""A""}",175.0,17.0,1.0,gcs54w3b,vmu7c279,FULL STUDY,240.0
406,522,2,Player object (855),buy,2023-02-26 19:14:31.263460+00:00,"{""priceA"": 125, ""sharesA"": 1, ""secs_since_round_starts"": 162, ""market"": ""A""}",50.0,29.0,2.0,gcs54w3b,vmu7c279,FULL STUDY,240.0
407,523,2,Player object (855),PREDICTIONS_SENT,2023-02-26 19:14:50.384098+00:00,"{""priceA"": 130, ""sharesA"": 1, ""secs_since_round_starts"": 182, ""action"": ""predictions_send"", ""stockUpA"": 2, ""confidenceA"": 2}",50.0,30.0,2.0,gcs54w3b,vmu7c279,FULL STUDY,240.0
408,524,2,Player object (855),sell,2023-02-26 19:15:08.113207+00:00,"{""priceA"": 140, ""sharesA"": 0, ""secs_since_round_starts"": 199, ""market"": ""A""}",190.0,34.0,3.0,gcs54w3b,vmu7c279,FULL STUDY,240.0
409,525,2,Player object (855),buy,2023-02-26 19:15:29.681328+00:00,"{""priceA"": 125, ""sharesA"": 1, ""secs_since_round_starts"": 221, ""market"": ""A""}",65.0,38.0,4.0,gcs54w3b,vmu7c279,FULL STUDY,240.0
410,526,2,Player object (855),sell,2023-02-26 19:15:35.425358+00:00,"{""priceA"": 140, ""sharesA"": 0, ""secs_since_round_starts"": 227, ""market"": ""A""}",205.0,39.0,5.0,gcs54w3b,vmu7c279,FULL STUDY,240.0
411,527,2,Player object (855),buy,2023-02-26 19:15:51.781688+00:00,"{""priceA"": 125, ""sharesA"": 1, ""secs_since_round_starts"": 243, ""market"": ""A""}",80.0,42.0,6.0,gcs54w3b,vmu7c279,FULL STUDY,240.0
412,528,2,Player object (855),sell,2023-02-26 19:16:03.644130+00:00,"{""priceA"": 140, ""sharesA"": 0, ""secs_since_round_starts"": 255, ""market"": ""A""}",220.0,44.0,7.0,gcs54w3b,vmu7c279,FULL STUDY,240.0
413,529,2,Player object (855),buy,2023-02-26 19:16:41.372847+00:00,"{""priceA"": 125, ""sharesA"": 1, ""secs_since_round_starts"": 293, ""market"": ""A""}",95.0,51.0,8.0,gcs54w3b,vmu7c279,FULL STUDY,240.0
414,530,2,Player object (855),sell,2023-02-26 19:16:59.611804+00:00,"{""priceA"": 135, ""sharesA"": 0, ""secs_since_round_starts"": 311, ""market"": ""A""}",230.0,54.0,9.0,gcs54w3b,vmu7c279,FULL STUDY,240.0
415,531,2,Player object (855),buy,2023-02-26 19:17:14.034646+00:00,"{""priceA"": 115, ""sharesA"": 1, ""secs_since_round_starts"": 325, ""market"": ""A""}",115.0,57.0,10.0,gcs54w3b,vmu7c279,FULL STUDY,240.0
416,570,2,Player object (860),GAME_STARTS,2023-03-01 23:00:17.911752+00:00,"{""priceA"": 100, ""sharesA"": 1, ""secs_since_round_starts"": 0}",50.0,,,hre8fq8i,vmu7c279,FULL STUDY,165.0
417,571,2,Player object (860),PREDICTIONS_SENT,2023-03-01 23:00:47.434287+00:00,"{""priceA"": 100, ""sharesA"": 1, ""secs_since_round_starts"": 29, ""action"": ""predictions_send"", ""stockUpA"": 3, ""confidenceA"": 5}",50.0,,,hre8fq8i,vmu7c279,FULL STUDY,165.0
418,572,2,Player object (860),sell,2023-03-01 23:01:08.291641+00:00,"{""priceA"": 110, ""sharesA"": 0, ""secs_since_round_starts"": 50, ""market"": ""A""}",160.0,5.0,1.0,hre8fq8i,vmu7c279,FULL STUDY,165.0
419,573,2,Player object (860),buy,2023-03-01 23:01:12.408458+00:00,"{""priceA"": 100, ""sharesA"": 1, ""secs_since_round_starts"": 54, ""market"": ""A""}",60.0,6.0,2.0,hre8fq8i,vmu7c279,FULL STUDY,165.0
420,574,2,Player object (860),sell,2023-03-01 23:01:35.286868+00:00,"{""priceA"": 65, ""sharesA"": 0, ""secs_since_round_starts"": 77, ""market"": ""A""}",125.0,10.0,3.0,hre8fq8i,vmu7c279,FULL STUDY,165.0
421,575,2,Player object (860),buy,2023-03-01 23:01:41.610487+00:00,"{""priceA"": 80, ""sharesA"": 1, ""secs_since_round_starts"": 83, ""market"": ""A""}",45.0,11.0,4.0,hre8fq8i,vmu7c279,FULL STUDY,165.0
422,576,2,Player object (860),sell,2023-03-01 23:02:00.766313+00:00,"{""priceA"": 105, ""sharesA"": 0, ""secs_since_round_starts"": 102, ""market"": ""A""}",150.0,15.0,5.0,hre8fq8i,vmu7c279,FULL STUDY,165.0
423,577,2,Player object (860),buy,2023-03-01 23:02:43.402138+00:00,"{""priceA"": 150, ""sharesA"": 1, ""secs_since_round_starts"": 145, ""market"": ""A""}",,22.0,6.0,hre8fq8i,vmu7c279,FULL STUDY,165.0
424,578,2,Player object (860),sell,2023-03-01 23:03:01.529294+00:00,"{""priceA"": 125, ""sharesA"": 0, ""secs_since_round_starts"": 163, ""market"": ""A""}",125.0,26.0,7.0,hre8fq8i,vmu7c279,FULL STUDY,165.0
425,579,2,Player object (860),buy,2023-03-01 23:03:03.488449+00:00,"{""priceA"": 125, ""sharesA"": 1, ""secs_since_round_starts"": 165, ""market"": ""A""}",,26.0,7.0,hre8fq8i,vmu7c279,FULL STUDY,165.0
426,580,2,Player object (860),PREDICTIONS_SENT,2023-03-01 23:03:32.516637+00:00,"{""priceA"": 130, ""sharesA"": 1, ""secs_since_round_starts"": 194, ""action"": ""predictions_send"", ""stockUpA"": 4, ""confidenceA"": 3}",,30.0,7.0,hre8fq8i,vmu7c279,FULL STUDY,165.0
427,581,2,Player object (860),sell,2023-03-01 23:03:41.211266+00:00,"{""priceA"": 130, ""sharesA"": 0, ""secs_since_round_starts"": 203, ""market"": ""A""}",130.0,32.0,8.0,hre8fq8i,vmu7c279,FULL STUDY,165.0
428,582,2,Player object (860),buy,2023-03-01 23:03:52.053518+00:00,"{""priceA"": 140, ""sharesA"": 1, ""secs_since_round_starts"": 214, ""market"": ""A""}",-10.0,34.0,9.0,hre8fq8i,vmu7c279,FULL STUDY,165.0
429,583,2,Player object (860),sell,2023-03-01 23:04:02.154076+00:00,"{""priceA"": 145, ""sharesA"": 0, ""secs_since_round_starts"": 224, ""market"": ""A""}",135.0,36.0,10.0,hre8fq8i,vmu7c279,FULL STUDY,165.0
430,584,2,Player object (860),buy,2023-03-01 23:04:15.583374+00:00,"{""priceA"": 125, ""sharesA"": 1, ""secs_since_round_starts"": 237, ""market"": ""A""}",10.0,38.0,11.0,hre8fq8i,vmu7c279,FULL STUDY,165.0
431,585,2,Player object (860),sell,2023-03-01 23:04:23.979447+00:00,"{""priceA"": 135, ""sharesA"": 0, ""secs_since_round_starts"": 246, ""market"": ""A""}",145.0,40.0,12.0,hre8fq8i,vmu7c279,FULL STUDY,165.0
432,586,2,Player object (860),buy,2023-03-01 23:04:36.192204+00:00,"{""priceA"": 125, ""sharesA"": 1, ""secs_since_round_starts"": 258, ""market"": ""A""}",20.0,42.0,13.0,hre8fq8i,vmu7c279,FULL STUDY,165.0
433,587,2,Player object (860),sell,2023-03-01 23:04:57.239551+00:00,"{""priceA"": 140, ""sharesA"": 0, ""secs_since_round_starts"": 279, ""market"": ""A""}",160.0,46.0,14.0,hre8fq8i,vmu7c279,FULL STUDY,165.0
434,588,2,Player object (860),buy,2023-03-01 23:05:04.634079+00:00,"{""priceA"": 155, ""sharesA"": 1, ""secs_since_round_starts"": 286, ""market"": ""A""}",5.0,47.0,15.0,hre8fq8i,vmu7c279,FULL STUDY,165.0
435,589,2,Player object (860),sell,2023-03-01 23:05:13.510004+00:00,"{""priceA"": 155, ""sharesA"": 0, ""secs_since_round_starts"": 295, ""market"": ""A""}",160.0,49.0,16.0,hre8fq8i,vmu7c279,FULL STUDY,165.0
436,590,2,Player object (860),buy,2023-03-01 23:05:23.371193+00:00,"{""priceA"": 125, ""sharesA"": 1, ""secs_since_round_starts"": 305, ""market"": ""A""}",35.0,51.0,17.0,hre8fq8i,vmu7c279,FULL STUDY,165.0
437,591,2,Player object (860),sell,2023-03-01 23:05:40.883232+00:00,"{""priceA"": 135, ""sharesA"": 0, ""secs_since_round_starts"": 323, ""market"": ""A""}",170.0,54.0,18.0,hre8fq8i,vmu7c279,FULL STUDY,165.0
438,592,2,Player object (860),buy,2023-03-01 23:05:45.792384+00:00,"{""priceA"": 125, ""sharesA"": 1, ""secs_since_round_starts"": 327, ""market"": ""A""}",45.0,55.0,19.0,hre8fq8i,vmu7c279,FULL STUDY,165.0
439,593,2,Player object (860),sell,2023-03-01 23:05:51.715267+00:00,"{""priceA"": 110, ""sharesA"": 0, ""secs_since_round_starts"": 333, ""market"": ""A""}",155.0,56.0,20.0,hre8fq8i,vmu7c279,FULL STUDY,165.0
440,594,2,Player object (860),buy,2023-03-01 23:05:55.884244+00:00,"{""priceA"": 115, ""sharesA"": 1, ""secs_since_round_starts"": 338, ""market"": ""A""}",40.0,57.0,21.0,hre8fq8i,vmu7c279,FULL STUDY,165.0
441,684,2,Player object (861),GAME_STARTS,2023-03-03 23:06:48.803784+00:00,"{""priceA"": 100, ""sharesA"": 1, ""secs_since_round_starts"": 0}",50.0,,,pb727kvg,vmu7c279,FULL STUDY,220.0
442,685,2,Player object (861),PREDICTIONS_SENT,2023-03-03 23:07:07.644640+00:00,"{""priceA"": 100, ""sharesA"": 1, ""secs_since_round_starts"": 18, ""action"": ""predictions_send"", ""stockUpA"": 4, ""confidenceA"": 4}",50.0,,,pb727kvg,vmu7c279,FULL STUDY,220.0
443,686,2,Player object (861),sell,2023-03-03 23:08:31.261631+00:00,"{""priceA"": 120, ""sharesA"": 0, ""secs_since_round_starts"": 102, ""market"": ""A""}",170.0,14.0,1.0,pb727kvg,vmu7c279,FULL STUDY,220.0
444,687,2,Player object (861),buy,2023-03-03 23:09:48.130003+00:00,"{""priceA"": 115, ""sharesA"": 1, ""secs_since_round_starts"": 179, ""market"": ""A""}",55.0,28.0,2.0,pb727kvg,vmu7c279,FULL STUDY,220.0
445,688,2,Player object (861),PREDICTIONS_SENT,2023-03-03 23:10:22.489936+00:00,"{""priceA"": 130, ""sharesA"": 1, ""secs_since_round_starts"": 213, ""action"": ""predictions_send"", ""stockUpA"": 4, ""confidenceA"": 4}",55.0,30.0,2.0,pb727kvg,vmu7c279,FULL STUDY,220.0
446,689,2,Player object (861),sell,2023-03-03 23:11:52.543156+00:00,"{""priceA"": 155, ""sharesA"": 0, ""secs_since_round_starts"": 303, ""market"": ""A""}",210.0,47.0,3.0,pb727kvg,vmu7c279,FULL STUDY,220.0
447,690,2,Player object (861),buy,2023-03-03 23:12:46.540706+00:00,"{""priceA"": 115, ""sharesA"": 1, ""secs_since_round_starts"": 357, ""market"": ""A""}",95.0,57.0,4.0,pb727kvg,vmu7c279,FULL STUDY,220.0
448,691,2,Player object (861),GAME_ENDS,2023-03-03 23:13:01.752103+00:00,"{""priceA"": 125, ""sharesA"": 1, ""secs_since_round_starts"": 373}",95.0,60.0,4.0,pb727kvg,vmu7c279,FULL STUDY,220.0
449,819,2,Player object (863),GAME_STARTS,2023-03-04 17:28:12.108358+00:00,"{""priceA"": 100, ""sharesA"": 1, ""secs_since_round_starts"": 0}",50.0,,,pgdv91vz,vmu7c279,FULL STUDY,185.0
450,820,2,Player object (863),PREDICTIONS_SENT,2023-03-04 17:28:43.720211+00:00,"{""priceA"": 100, ""sharesA"": 1, ""secs_since_round_starts"": 31, ""action"": ""predictions_send"", ""stockUpA"": 3, ""confidenceA"": 3}",50.0,,,pgdv91vz,vmu7c279,FULL STUDY,185.0
451,821,2,Player object (863),sell,2023-03-04 17:29:58.418696+00:00,"{""priceA"": 105, ""sharesA"": 0, ""secs_since_round_starts"": 106, ""market"": ""A""}",155.0,15.0,1.0,pgdv91vz,vmu7c279,FULL STUDY,185.0
452,822,2,Player object (863),PREDICTIONS_SENT,2023-03-04 17:31:32.757647+00:00,"{""priceA"": 130, ""sharesA"": 0, ""secs_since_round_starts"": 200, ""action"": ""predictions_send"", ""stockUpA"": 4, ""confidenceA"": 4}",155.0,30.0,1.0,pgdv91vz,vmu7c279,FULL STUDY,185.0
453,823,2,Player object (863),buy,2023-03-04 17:32:12.026340+00:00,"{""priceA"": 125, ""sharesA"": 1, ""secs_since_round_starts"": 239, ""market"": ""A""}",30.0,38.0,2.0,pgdv91vz,vmu7c279,FULL STUDY,185.0
454,824,2,Player object (863),sell,2023-03-04 17:32:50.415916+00:00,"{""priceA"": 155, ""sharesA"": 0, ""secs_since_round_starts"": 278, ""market"": ""A""}",185.0,45.0,3.0,pgdv91vz,vmu7c279,FULL STUDY,185.0
455,825,2,Player object (863),buy,2023-03-04 17:32:57.100007+00:00,"{""priceA"": 140, ""sharesA"": 1, ""secs_since_round_starts"": 285, ""market"": ""A""}",45.0,46.0,4.0,pgdv91vz,vmu7c279,FULL STUDY,185.0
456,826,2,Player object (863),sell,2023-03-04 17:33:01.456375+00:00,"{""priceA"": 155, ""sharesA"": 0, ""secs_since_round_starts"": 289, ""market"": ""A""}",200.0,47.0,5.0,pgdv91vz,vmu7c279,FULL STUDY,185.0
457,827,2,Player object (863),buy,2023-03-04 17:33:17.907031+00:00,"{""priceA"": 140, ""sharesA"": 1, ""secs_since_round_starts"": 305, ""market"": ""A""}",60.0,50.0,6.0,pgdv91vz,vmu7c279,FULL STUDY,185.0
458,828,2,Player object (863),sell,2023-03-04 17:33:56.746606+00:00,"{""priceA"": 115, ""sharesA"": 0, ""secs_since_round_starts"": 344, ""market"": ""A""}",175.0,57.0,7.0,pgdv91vz,vmu7c279,FULL STUDY,185.0
459,829,2,Player object (863),buy,2023-03-04 17:33:57.275585+00:00,"{""priceA"": 115, ""sharesA"": 1, ""secs_since_round_starts"": 345, ""market"": ""A""}",60.0,57.0,7.0,pgdv91vz,vmu7c279,FULL STUDY,185.0
460,830,2,Player object (863),GAME_ENDS,2023-03-04 17:34:12.051338+00:00,"{""priceA"": 125, ""sharesA"": 1, ""secs_since_round_starts"": 360}",60.0,60.0,7.0,pgdv91vz,vmu7c279,FULL STUDY,185.0
461,934,2,Player object (867),GAME_STARTS,2023-03-04 19:50:14.988889+00:00,"{""priceA"": 100, ""sharesA"": 1, ""secs_since_round_starts"": 0}",50.0,,,3cbm3sys,vmu7c279,FULL STUDY,180.0
462,935,2,Player object (868),GAME_STARTS,2023-03-04 19:50:17.000941+00:00,"{""priceA"": 100, ""sharesA"": 1, ""secs_since_round_starts"": 0}",50.0,,,galec1ga,vmu7c279,FULL STUDY,230.0
463,936,2,Player object (867),PREDICTIONS_SENT,2023-03-04 19:50:36.385374+00:00,"{""priceA"": 100, ""sharesA"": 1, ""secs_since_round_starts"": 21, ""action"": ""predictions_send"", ""stockUpA"": 4, ""confidenceA"": 3}",50.0,,,3cbm3sys,vmu7c279,FULL STUDY,180.0
464,937,2,Player object (868),PREDICTIONS_SENT,2023-03-04 19:51:05.164545+00:00,"{""priceA"": 100, ""sharesA"": 1, ""secs_since_round_starts"": 48, ""action"": ""predictions_send"", ""stockUpA"": 3, ""confidenceA"": 4}",50.0,,,galec1ga,vmu7c279,FULL STUDY,230.0
465,938,2,Player object (868),sell,2023-03-04 19:51:29.658546+00:00,"{""priceA"": 100, ""sharesA"": 0, ""secs_since_round_starts"": 72, ""market"": ""A""}",150.0,6.0,1.0,galec1ga,vmu7c279,FULL STUDY,230.0
466,939,2,Player object (868),buy,2023-03-04 19:51:38.203691+00:00,"{""priceA"": 85, ""sharesA"": 1, ""secs_since_round_starts"": 81, ""market"": ""A""}",65.0,7.0,2.0,galec1ga,vmu7c279,FULL STUDY,230.0
467,940,2,Player object (867),sell,2023-03-04 19:51:50.458604+00:00,"{""priceA"": 105, ""sharesA"": 0, ""secs_since_round_starts"": 95, ""market"": ""A""}",155.0,15.0,1.0,3cbm3sys,vmu7c279,FULL STUDY,180.0
468,941,2,Player object (868),sell,2023-03-04 19:52:09.563679+00:00,"{""priceA"": 105, ""sharesA"": 0, ""secs_since_round_starts"": 112, ""market"": ""A""}",170.0,13.0,3.0,galec1ga,vmu7c279,FULL STUDY,230.0
469,942,2,Player object (867),buy,2023-03-04 19:52:14.568137+00:00,"{""priceA"": 125, ""sharesA"": 1, ""secs_since_round_starts"": 119, ""market"": ""A""}",30.0,19.0,2.0,3cbm3sys,vmu7c279,FULL STUDY,180.0
470,943,2,Player object (867),sell,2023-03-04 19:52:31.677169+00:00,"{""priceA"": 150, ""sharesA"": 0, ""secs_since_round_starts"": 136, ""market"": ""A""}",180.0,22.0,3.0,3cbm3sys,vmu7c279,FULL STUDY,180.0
471,944,2,Player object (867),buy,2023-03-04 19:52:40.161039+00:00,"{""priceA"": 145, ""sharesA"": 1, ""secs_since_round_starts"": 145, ""market"": ""A""}",35.0,24.0,4.0,3cbm3sys,vmu7c279,FULL STUDY,180.0
472,945,2,Player object (868),buy,2023-03-04 19:53:29.012979+00:00,"{""priceA"": 120, ""sharesA"": 1, ""secs_since_round_starts"": 192, ""market"": ""A""}",50.0,27.0,4.0,galec1ga,vmu7c279,FULL STUDY,230.0
473,946,2,Player object (867),PREDICTIONS_SENT,2023-03-04 19:53:38.871402+00:00,"{""priceA"": 130, ""sharesA"": 1, ""secs_since_round_starts"": 204, ""action"": ""predictions_send"", ""stockUpA"": 3, ""confidenceA"": 3}",35.0,30.0,4.0,3cbm3sys,vmu7c279,FULL STUDY,180.0
474,947,2,Player object (868),PREDICTIONS_SENT,2023-03-04 19:54:00.806760+00:00,"{""priceA"": 130, ""sharesA"": 1, ""secs_since_round_starts"": 224, ""action"": ""predictions_send"", ""stockUpA"": 4, ""confidenceA"": 3}",50.0,30.0,4.0,galec1ga,vmu7c279,FULL STUDY,230.0
475,948,2,Player object (867),sell,2023-03-04 19:54:07.465081+00:00,"{""priceA"": 145, ""sharesA"": 0, ""secs_since_round_starts"": 232, ""market"": ""A""}",180.0,36.0,5.0,3cbm3sys,vmu7c279,FULL STUDY,180.0
476,949,2,Player object (868),sell,2023-03-04 19:54:09.879423+00:00,"{""priceA"": 130, ""sharesA"": 0, ""secs_since_round_starts"": 233, ""market"": ""A""}",180.0,32.0,5.0,galec1ga,vmu7c279,FULL STUDY,230.0
477,950,2,Player object (867),buy,2023-03-04 19:54:20.645347+00:00,"{""priceA"": 125, ""sharesA"": 1, ""secs_since_round_starts"": 245, ""market"": ""A""}",55.0,38.0,6.0,3cbm3sys,vmu7c279,FULL STUDY,180.0
478,951,2,Player object (868),buy,2023-03-04 19:54:41.100805+00:00,"{""priceA"": 125, ""sharesA"": 1, ""secs_since_round_starts"": 264, ""market"": ""A""}",55.0,38.0,6.0,galec1ga,vmu7c279,FULL STUDY,230.0
479,952,2,Player object (868),sell,2023-03-04 19:54:52.595642+00:00,"{""priceA"": 135, ""sharesA"": 0, ""secs_since_round_starts"": 275, ""market"": ""A""}",190.0,40.0,7.0,galec1ga,vmu7c279,FULL STUDY,230.0
480,953,2,Player object (867),sell,2023-03-04 19:54:58.217347+00:00,"{""priceA"": 155, ""sharesA"": 0, ""secs_since_round_starts"": 283, ""market"": ""A""}",210.0,45.0,7.0,3cbm3sys,vmu7c279,FULL STUDY,180.0
481,954,2,Player object (868),buy,2023-03-04 19:55:03.369952+00:00,"{""priceA"": 125, ""sharesA"": 1, ""secs_since_round_starts"": 286, ""market"": ""A""}",65.0,42.0,8.0,galec1ga,vmu7c279,FULL STUDY,230.0
482,955,2,Player object (867),buy,2023-03-04 19:55:20.929162+00:00,"{""priceA"": 155, ""sharesA"": 1, ""secs_since_round_starts"": 306, ""market"": ""A""}",55.0,49.0,8.0,3cbm3sys,vmu7c279,FULL STUDY,180.0
483,956,2,Player object (868),sell,2023-03-04 19:55:24.391308+00:00,"{""priceA"": 140, ""sharesA"": 0, ""secs_since_round_starts"": 307, ""market"": ""A""}",205.0,46.0,9.0,galec1ga,vmu7c279,FULL STUDY,230.0
484,957,2,Player object (868),buy,2023-03-04 19:55:58.530452+00:00,"{""priceA"": 135, ""sharesA"": 1, ""secs_since_round_starts"": 341, ""market"": ""A""}",70.0,52.0,10.0,galec1ga,vmu7c279,FULL STUDY,230.0
485,958,2,Player object (868),sell,2023-03-04 19:56:05.443042+00:00,"{""priceA"": 145, ""sharesA"": 0, ""secs_since_round_starts"": 348, ""market"": ""A""}",215.0,53.0,11.0,galec1ga,vmu7c279,FULL STUDY,230.0
486,959,2,Player object (867),GAME_ENDS,2023-03-04 19:56:17.961769+00:00,"{""priceA"": 125, ""sharesA"": 1, ""secs_since_round_starts"": 363}",55.0,60.0,8.0,3cbm3sys,vmu7c279,FULL STUDY,180.0
487,960,2,Player object (868),buy,2023-03-04 19:56:19.826581+00:00,"{""priceA"": 110, ""sharesA"": 1, ""secs_since_round_starts"": 363, ""market"": ""A""}",105.0,56.0,12.0,galec1ga,vmu7c279,FULL STUDY,230.0
488,962,2,Player object (868),sell,2023-03-04 19:56:36.332807+00:00,"{""priceA"": 125, ""sharesA"": 0, ""secs_since_round_starts"": 379, ""market"": ""A""}",230.0,59.0,13.0,galec1ga,vmu7c279,FULL STUDY,230.0
489,964,2,Player object (868),GAME_ENDS,2023-03-04 19:56:39.886620+00:00,"{""priceA"": 125, ""sharesA"": 0, ""secs_since_round_starts"": 383}",230.0,60.0,13.0,galec1ga,vmu7c279,FULL STUDY,230.0
